t_s,ax,ay,az
0.001897,9.23021582733813,-0.6139088729016786,-0.5971223021582733
0.006901999999999999,9.309352517985612,-0.4364508393285372,-0.6426858513189448
0.011906999999999997,9.453237410071942,-0.2997601918465228,-0.709832134292566
0.016912,9.633093525179856,-0.1750599520383693,-0.8393285371702638
0.021916999999999996,9.851318944844124,-0.09592326139088729,-0.9952038369304557
0.026921999999999995,10.057553956834532,-0.02877697841726619,-1.1630695443645085
0.031927,10.270983213429256,-0.050359712230215826,-1.2949640287769784
0.036932,10.462829736211031,-0.11031175059952038,-1.3453237410071943
0.041936999999999995,10.673860911270983,-0.18465227817745802,-1.4268585131894485
0.046942,10.880095923261392,-0.22541966426858512,-1.5107913669064748
0.05194699999999999,11.019184652278177,-0.23980815347721823,-1.5275779376498801
0.056951999999999996,11.100719424460431,-0.2685851318944844,-1.539568345323741
0.061957,11.119904076738608,-0.2446043165467626,-1.5299760191846523
0.06696199999999998,11.083932853717027,-0.15347721822541965,-1.434052757793765
0.07196699999999999,11.043165467625899,-0.0671462829736211,-1.249400479616307
0.07697199999999998,11.045563549160672,-0.03357314148681055,-0.9616306954436451
0.08197699999999998,11.151079136690647,-0.03357314148681055,-0.6282973621103117
0.08698199999999999,11.285371702637889,-0.14628297362110312,-0.22541966426858512
0.09198699999999999,11.3621103117506,-0.26618705035971224,0.11510791366906475
0.09699199999999998,11.486810551558753,-0.35731414868105515,0.4412470023980815
0.10199699999999998,11.573141486810552,-0.4172661870503597,0.7266187050359713
0.10700199999999999,11.575539568345324,-0.5299760191846523,1.026378896882494
0.11200699999999998,11.532374100719425,-0.6163069544364509,1.20863309352518
0.11701199999999998,11.371702637889689,-0.6402877697841727,1.2661870503597121
0.12201699999999999,11.083932853717027,-0.5539568345323741,1.2589928057553956
0.127022,10.712230215827338,-0.45083932853717024,1.2278177458033572
0.13202699999999998,10.326139088729017,-0.3597122302158273,1.1558752997601918
0.137032,10.019184652278177,-0.2805755395683453,1.0767386091127098
0.142037,9.774580335731414,-0.23741007194244604,0.9064748201438849
0.14704199999999998,9.585131894484412,-0.2158273381294964,0.7601918465227818
0.152047,9.338129496402878,-0.1510791366906475,0.6522781774580336
0.157052,9.141486810551559,-0.02158273381294964,0.6163069544364509
0.16205699999999998,8.995203836930456,0.08633093525179857,0.6954436450839329
0.167062,9.007194244604317,0.1510791366906475,0.7673860911270983
0.172067,8.96642685851319,0.38369304556354916,0.7601918465227818
0.17707199999999998,8.894484412470025,0.6378896882494005,0.7721822541966427
0.182077,8.995203836930456,0.7314148681055156,0.815347721822542
0.187082,9.105515587529975,0.750599520383693,0.7937649880095923
0.19208699999999998,9.254196642685852,0.6714628297362111,0.7218225419664268
0.197092,9.46043165467626,0.5419664268585132,0.5995203836930456
0.20209699999999997,9.621103117505996,0.460431654676259,0.3908872901678657
0.20710199999999998,9.7242206235012,0.3932853717026379,0.17985611510791366
0.212107,9.786570743405276,0.37889688249400477,-0.06235011990407674
0.21711199999999997,9.858513189448441,0.28776978417266186,-0.328537170263789
0.22211699999999998,9.904076738609113,0.2637889688249401,-0.6306954436450839
0.227122,10.007194244604317,0.15827338129496402,-0.8896882494004796
0.23212699999999997,10.213429256594724,0.02158273381294964,-1.105515587529976
0.23713199999999998,10.453237410071942,-0.1342925659472422,-1.2589928057553956
0.242137,10.700239808153476,-0.2733812949640288,-1.3357314148681054
0.24714199999999997,10.985611510791367,-0.37410071942446044,-1.4892086330935252
0.25214699999999995,11.290167865707435,-0.4892086330935252,-1.6067146282973621
0.25715199999999994,11.515587529976019,-0.5515587529976019,-1.6570743405275778
0.2621569999999999,11.6378896882494,-0.5011990407673861,-1.7529976019184652
0.26716199999999996,11.784172661870503,-0.48201438848920863,-1.8489208633093526
0.27216699999999994,11.93525179856115,-0.4148681055155875,-1.908872901678657
0.2771719999999999,12.028776978417266,-0.26139088729016785,-1.976019184652278
0.28217699999999996,12.13189448441247,-0.17266187050359713,-2.0071942446043165
0.28718199999999994,12.218225419664268,-0.15587529976019185,-1.8920863309352518
0.2921869999999999,12.299760191846524,-0.17985611510791366,-1.671462829736211
0.29719199999999996,12.292565947242206,-0.16546762589928057,-1.410071942446043
0.30219699999999994,12.19904076738609,-0.13189448441247004,-1.119904076738609
0.3072019999999999,11.990407673860911,-0.019184652278177457,-0.762589928057554
0.31220699999999996,11.688249400479616,0.1079136690647482,-0.4316546762589928
0.31721199999999994,11.388489208633093,0.2302158273381295,-0.20863309352517986
0.3222169999999999,11.071942446043165,0.38609112709832133,-0.06235011990407674
0.32722199999999996,10.81294964028777,0.5011990407673861,0.09352517985611511
0.33222699999999994,10.580335731414868,0.5731414868105515,0.2014388489208633
0.3372319999999999,10.37410071942446,0.5995203836930456,0.29256594724220625
0.34223699999999996,10.194244604316546,0.6642685851318945,0.34532374100719426
0.34724199999999994,9.93285371702638,0.7697841726618705,0.4292565947242206
0.3522469999999999,9.76978417266187,0.7266187050359713,0.6258992805755396
0.35725199999999996,9.75779376498801,0.6618705035971223,0.7889688249400479
0.36225699999999994,9.827338129496402,0.6163069544364509,0.86810551558753
0.3672619999999999,9.968824940047961,0.41247002398081534,0.9400479616306955
0.37226699999999996,10.16306954436451,0.2158273381294964,0.9808153477218226
0.37727199999999994,10.357314148681056,0.1079136690647482,0.9520383693045563
0.3822769999999999,10.402877697841726,0.0407673860911271,0.894484412470024
0.38728199999999996,10.354916067146283,0.009592326139088728,0.8489208633093526
0.39228699999999994,10.24220623501199,0.0,0.8345323741007195
0.3972919999999999,10.134292565947241,0.007194244604316547,0.7266187050359713
0.4022969999999999,10.004796163069544,0.004796163069544364,0.5347721822541966
0.40730199999999994,9.83453237410072,-0.023980815347721823,0.38369304556354916
0.4123069999999999,9.633093525179856,-0.05275779376498801,0.26618705035971224
0.4173119999999999,9.441247002398082,-0.13189448441247004,0.22062350119904076
0.42231699999999994,9.239808153477219,-0.16786570743405277,0.1486810551558753
0.4273219999999999,9.038369304556355,-0.19424460431654678,0.07434052757793765
0.4323269999999999,8.899280575539569,-0.21342925659472423,0.02877697841726619
0.43733199999999994,8.860911270983214,-0.2158273381294964,-0.07913669064748201
0.4423369999999999,8.832134292565947,-0.18944844124700239,-0.19184652278177458
0.4473419999999999,8.784172661870503,-0.16546762589928057,-0.328537170263789
0.45234699999999994,8.748201438848922,-0.047961630695443645,-0.47961630695443647
0.4573519999999999,8.748201438848922,0.09352517985611511,-0.6306954436450839
0.4623569999999999,8.863309352517986,0.1510791366906475,-0.7793764988009593
0.46736199999999994,9.045563549160672,0.1606714628297362,-0.8705035971223022
0.4723669999999999,9.287769784172662,0.12470023980815348,-0.9688249400479616
0.4773719999999999,9.59232613908873,0.05995203836930456,-1.0575539568345325
0.48237699999999994,9.870503597122303,-0.08633093525179857,-1.0839328537170263
0.4873819999999999,10.004796163069544,-0.2565947242206235,-1.0767386091127098
0.4923869999999999,10.011990407673862,-0.3597122302158273,-1.0599520383693046
0.49739199999999995,9.896882494004796,-0.3932853717026379,-0.9760191846522782
0.502397,9.623501199040767,-0.38609112709832133,-0.8129496402877698
0.5074019999999999,9.398081534772182,-0.4196642685851319,-0.6235011990407674
0.512407,9.088729016786571,-0.3213429256594724,-0.486810551558753
0.517412,8.762589928057555,-0.1750599520383693,-0.3764988009592326
0.5224169999999999,8.431654676258994,-0.002398081534772182,-0.2685851318944844
0.527422,8.20863309352518,0.15827338129496402,-0.17266187050359713
0.532427,8.105515587529975,0.35251798561151076,-0.09592326139088729
0.5374319999999999,8.06714628297362,0.44364508393285373,0.0
0.542437,8.136690647482014,0.4676258992805755,0.1630695443645084
0.547442,8.24220623501199,0.4580335731414868,0.3213429256594724
0.5524469999999999,8.350119904076738,0.4292565947242206,0.44364508393285373
0.557452,8.503597122302159,0.47002398081534774,0.4988009592326139
0.562457,8.60431654676259,0.5155875299760192,0.40047961630695444
0.5674619999999999,8.654676258992806,0.5251798561151079,0.3932853717026379
0.572467,8.717026378896882,0.5323741007194245,0.2949640287769784
0.577472,8.70503597122302,0.592326139088729,0.11750599520383694
0.5824769999999999,8.726618705035971,0.6378896882494005,-0.014388489208633094
0.587482,8.752997601918466,0.6498800959232613,-0.07434052757793765
0.592487,8.755395683453237,0.6594724220623501,-0.17026378896882494
0.5974919999999999,8.683453237410072,0.6282973621103117,-0.2589928057553957
0.602497,8.67146282973621,0.5587529976019184,-0.27817745803357313
0.607502,8.681055155875299,0.4988009592326139,-0.2973621103117506
0.6125069999999999,8.73621103117506,0.460431654676259,-0.2541966426858513
0.617512,8.884892086330936,0.39568345323741005,-0.2038369304556355
0.622517,8.995203836930456,0.2997601918465228,-0.11270983213429256
0.6275219999999999,9.201438848920864,0.23980815347721823,-0.07434052757793765
0.632527,9.371702637889689,0.2517985611510791,-0.09592326139088729
0.637532,9.484412470023981,0.11031175059952038,-0.15827338129496402
0.6425369999999999,9.565947242206235,-0.05755395683453238,-0.20623501199040767
0.647542,9.69304556354916,-0.14148681055155876,-0.2014388489208633
0.652547,9.786570743405276,-0.16786570743405277,-0.23501199040767387
0.6575519999999999,9.755395683453237,-0.23980815347721823,-0.290167865707434
0.662557,9.685851318944843,-0.31414868105515587,-0.3237410071942446
0.667562,9.697841726618705,-0.328537170263789,-0.2182254196642686
0.6725669999999999,9.62589928057554,-0.3764988009592326,-0.20623501199040767
0.677572,9.573141486810552,-0.4244604316546763,-0.16786570743405277
0.682577,9.53956834532374,-0.44364508393285373,-0.1606714628297362
0.6875819999999999,9.465227817745804,-0.4196642685851319,-0.18225419664268586
0.692587,9.398081534772182,-0.290167865707434,-0.2446043165467626
0.697592,9.32853717026379,-0.16786570743405277,-0.3117505995203837
0.7025969999999999,9.225419664268586,-0.03597122302158273,-0.49160671462829736
0.707602,9.15347721822542,0.11270983213429256,-0.657074340527578
0.712607,9.105515587529975,0.2182254196642686,-0.8992805755395683
0.7176119999999999,9.177458033573142,0.3261390887290168,-1.13189448441247
0.722617,9.34052757793765,0.31894484412470026,-1.3357314148681054
0.727622,9.482014388489208,0.22302158273381295,-1.4772182254196642
0.7326269999999999,9.609112709832134,0.07673860911270983,-1.6282973621103118
0.737632,9.709832134292565,-0.0815347721822542,-1.7961630695443644
0.742637,9.772182254196643,-0.24700239808153476,-1.8105515587529977
0.7476419999999999,9.755395683453237,-0.37170263788968827,-1.9112709832134294
0.752647,9.66906474820144,-0.4028776978417266,-2.1366906474820144
0.757652,9.541966426858513,-0.31894484412470026,-2.338129496402878
0.7626569999999999,9.398081534772182,-0.1750599520383693,-2.484412470023981
0.767662,9.215827338129497,-0.03117505995203837,-2.6019184652278176
0.772667,8.961630695443645,0.15347721822541965,-2.628297362110312
0.7776719999999999,8.774580335731414,0.36930455635491605,-2.5707434052757794
0.782677,8.654676258992806,0.592326139088729,-2.4412470023980815
0.787682,8.649880095923262,0.7362110311750599,-2.2134292565947242
0.7926869999999999,8.755395683453237,0.8393285371702638,-1.9232613908872902
0.797692,8.980815347721823,0.9160671462829736,-1.6067146282973621
0.8026969999999999,9.26378896882494,0.973621103117506,-1.330935251798561
0.8077019999999999,9.544364508393285,1.023980815347722,-1.0575539568345325
0.812707,9.750599520383693,1.0695443645083933,-0.7170263788968825
0.817712,9.880095923261392,1.129496402877698,-0.42206235011990406
0.8227169999999999,9.971223021582734,1.158273381294964,-0.2182254196642686
0.827722,10.06714628297362,1.1630695443645085,-0.05995203836930456
0.8327269999999999,10.095923261390887,1.0839328537170263,0.03357314148681055
0.8377319999999999,9.93285371702638,1.0767386091127098,0.06474820143884892
0.842737,9.784172661870503,1.014388489208633,0.045563549160671464
0.847742,9.633093525179856,0.9544364508393285,0.014388489208633094
0.8527469999999999,9.43884892086331,0.9520383693045563,-0.13189448441247004
0.857752,9.19904076738609,0.9808153477218226,-0.3237410071942446
0.8627569999999999,8.925659472422062,0.9928057553956835,-0.45323741007194246
0.8677619999999999,8.717026378896882,0.9568345323741008,-0.5683453237410072
0.872767,8.520383693045563,0.9544364508393285,-0.6834532374100719
0.877772,8.311750599520384,0.9784172661870504,-0.7410071942446043
0.8827769999999999,8.112709832134293,1.0191846522781776,-0.7242206235011991
0.887782,7.928057553956834,1.064748201438849,-0.6139088729016786
0.8927869999999999,7.752997601918465,1.143884892086331,-0.407673860911271
0.8977919999999999,7.565947242206235,1.1654676258992807,-0.21103117505995203
0.902797,7.532374100719425,1.235011990407674,-0.019184652278177457
0.907802,7.534772182254197,1.3860911270983214,0.1630695443645084
0.9128069999999999,7.601918465227818,1.3429256594724222,0.38848920863309355
0.917812,7.73621103117506,1.2517985611510791,0.6139088729016786
0.9228169999999999,7.7913669064748206,1.20863309352518,0.7074340527577938
0.9278219999999999,7.815347721822542,1.2541966426858513,0.7002398081534772
0.932827,7.805755395683454,1.3573141486810552,0.6666666666666666
0.937832,7.896882494004796,1.4412470023980815,0.762589928057554
0.9428369999999999,8.05515587529976,1.3932853717026379,0.894484412470024
0.947842,8.364508393285371,1.2422062350119905,1.0023980815347722
0.9528469999999999,8.755395683453237,0.9760191846522782,1.0311750599520384
0.9578519999999999,9.220623501199041,0.6594724220623501,0.9976019184652278
0.962857,9.767386091127099,0.29256594724220625,0.9712230215827338
0.967862,10.302158273381295,-0.07434052757793765,0.9256594724220624
0.9728669999999999,10.741007194244604,-0.3117505995203837,0.7985611510791367
0.9778719999999999,11.232613908872901,-0.7362110311750599,0.7002398081534772
0.9828769999999999,11.781774580335732,-1.2709832134292567,0.5971223021582733
0.9878819999999999,12.398081534772182,-1.73621103117506,0.28776978417266186
0.992887,12.980815347721823,-2.1774580335731413,-0.06235011990407674
0.997892,13.170263788968825,-2.594724220623501,-0.2637889688249401
1.002897,13.02158273381295,-3.07673860911271,-0.5275779376498801
1.0079019999999999,12.875299760191847,-3.460431654676259,-0.7170263788968825
1.012907,12.661870503597122,-3.5611510791366907,-0.9112709832134293
1.017912,12.335731414868105,-3.436450839328537,-1.129496402877698
1.0229169999999999,11.947242206235012,-3.2182254196642686,-1.3645083932853717
1.027922,11.558752997601918,-2.9664268585131897,-1.5755395683453237
1.032927,11.227817745803357,-2.6666666666666665,-1.685851318944844
1.0379319999999999,11.026378896882495,-2.3333333333333335,-1.764988009592326
1.042937,10.925659472422062,-2.0071942446043165,-1.803357314148681
1.047942,10.913669064748202,-1.8345323741007193,-1.7218225419664268
1.0529469999999999,10.947242206235012,-1.6067146282973621,-1.6354916067146283
1.057952,10.872901678657074,-1.2278177458033572,-1.6402877697841727
1.062957,10.635491606714629,-0.8177458033573142,-1.5995203836930456
1.0679619999999999,10.431654676258994,-0.4628297362110312,-1.580335731414868
1.072967,10.256594724220623,-0.19904076738609114,-1.6378896882494005
1.077972,10.124700239808153,-0.03597122302158273,-1.7146282973621103
1.0829769999999999,10.023980815347722,0.07673860911270983,-1.8321342925659472
1.087982,9.992805755395683,0.06474820143884892,-2.0695443645083933
1.092987,9.995203836930456,-0.004796163069544364,-2.3477218225419665
1.0979919999999999,10.052757793764988,-0.11510791366906475,-2.6091127098321345
1.102997,10.278177458033573,-0.2829736211031175,-2.8321342925659474
1.108002,10.606714628297363,-0.5275779376498801,-3.0407673860911273
1.1130069999999999,10.896882494004796,-0.7577937649880095,-3.211031175059952
1.118012,11.09832134292566,-0.894484412470024,-3.306954436450839
1.123017,11.218225419664268,-0.9448441247002398,-3.381294964028777
1.1280219999999999,11.309352517985612,-0.9976019184652278,-3.4532374100719423
1.1330269999999998,11.366906474820144,-1.014388489208633,-3.4892086330935252
1.138032,11.369304556354916,-0.9928057553956835,-3.5443645083932855
1.1430369999999999,11.316546762589928,-0.9304556354916067,-3.613908872901679
1.1480419999999998,11.218225419664268,-0.8441247002398081,-3.738609112709832
1.153047,11.052757793764988,-0.6930455635491607,-3.8225419664268587
1.1580519999999999,10.841726618705035,-0.49640287769784175,-3.906474820143885
1.1630569999999998,10.525179856115107,-0.37410071942446044,-3.949640287769784
1.168062,10.16546762589928,-0.2997601918465228,-3.908872901678657
1.1730669999999999,9.697841726618705,-0.08872901678657075,-3.8297362110311752
1.1780719999999998,9.338129496402878,0.2278177458033573,-3.6882494004796165
1.183077,8.983213429256594,0.5179856115107914,-3.4964028776978417
1.1880819999999999,8.764988009592326,0.7889688249400479,-3.3477218225419665
1.1930869999999998,8.484412470023981,1.211031175059952,-3.1678657074340526
1.198092,8.256594724220623,1.6019184652278178,-3.0551558752997603
1.2030969999999999,8.227817745803357,1.8105515587529977,-3.026378896882494
1.2081019999999998,8.189448441247002,1.9520383693045564,-2.935251798561151
1.213107,8.280575539568344,2.1702637889688248,-2.8657074340527577
1.2181119999999999,8.258992805755396,2.2973621103117505,-2.8105515587529974
1.2231169999999998,8.282973621103118,2.338129496402878,-2.7553956834532376
1.228122,8.46043165467626,2.4148681055155876,-2.7721822541966428
1.2331269999999999,8.752997601918466,2.4124700239808154,-2.884892086330935
1.2381319999999998,9.105515587529975,2.2661870503597124,-3.0431654676258995
1.243137,9.496402877697841,2.1103117505995206,-3.1918465227817747
1.2481419999999999,9.80095923261391,1.8657074340527577,-3.3309352517985613
1.2531469999999998,9.952038369304557,1.5299760191846523,-3.34052757793765
1.258152,10.016786570743406,1.13189448441247,-3.2709832134292567
1.2631569999999999,10.06474820143885,0.8009592326139089,-3.1223021582733814
1.2681619999999998,10.074340527577938,0.5083932853717026,-2.961630695443645
1.273167,10.062350119904076,0.2517985611510791,-2.817745803357314
1.2781719999999999,10.007194244604317,-0.08872901678657075,-2.5995203836930454
1.2831769999999998,9.896882494004796,-0.31654676258992803,-2.4148681055155876
1.288182,9.67146282973621,-0.3932853717026379,-2.172661870503597
1.2931869999999999,9.453237410071942,-0.434052757793765,-1.8489208633093526
1.2981919999999998,9.273381294964029,-0.5323741007194245,-1.4796163069544364
1.303197,9.285371702637889,-0.6714628297362111,-1.13189448441247
1.3082019999999999,9.43884892086331,-0.8033573141486811,-0.8800959232613909
1.3132069999999998,9.640287769784173,-0.8465227817745803,-0.829736211031175
1.318212,9.750599520383693,-0.8129496402877698,-0.8705035971223022
1.3232169999999999,9.80095923261391,-0.8057553956834532,-1.0047961630695443
1.3282219999999998,9.815347721822542,-0.8105515587529976,-1.2158273381294964
1.333227,9.774580335731414,-0.7817745803357314,-1.4508393285371703
1.3382319999999999,9.712230215827338,-0.7577937649880095,-1.7410071942446044
1.3432369999999998,9.597122302158274,-0.762589928057554,-2.0887290167865706
1.348242,9.431654676258994,-0.7314148681055156,-2.402877697841727
1.3532469999999999,9.237410071942445,-0.7170263788968825,-2.7170263788968825
1.3582519999999998,9.059952038369305,-0.7290167865707434,-2.985611510791367
1.363257,8.84652278177458,-0.7793764988009593,-3.20863309352518
1.3682619999999999,8.673860911270983,-0.8441247002398081,-3.3884892086330933
1.3732669999999998,8.601918465227818,-0.8800959232613909,-3.539568345323741
1.378272,8.520383693045563,-0.920863309352518,-3.671462829736211
1.3832769999999999,8.402877697841726,-0.9952038369304557,-3.7290167865707433
1.3882819999999998,8.37410071942446,-0.9232613908872902,-3.738609112709832
1.393287,8.414868105515588,-0.8345323741007195,-3.712230215827338
1.3982919999999999,8.479616306954437,-0.8057553956834532,-3.52757793764988
1.4032969999999998,8.462829736211031,-0.7577937649880095,-3.2326139088729016
1.408302,8.482014388489208,-0.6666666666666666,-2.8633093525179856
1.4133069999999999,8.477218225419664,-0.5227817745803357,-2.4652278177458036
1.4183119999999998,8.563549160671462,-0.42685851318944845,-2.1247002398081536
1.423317,8.690647482014388,-0.30935251798561153,-1.8513189448441247
1.4283219999999999,8.853717026378897,-0.18705035971223022,-1.6282973621103118
1.4333269999999998,9.069544364508394,-0.1606714628297362,-1.460431654676259
1.438332,9.352517985611511,-0.19184652278177458,-1.3117505995203838
1.4433369999999999,9.721822541966427,-0.302158273381295,-1.235011990407674
1.4483419999999998,10.158273381294965,-0.539568345323741,-1.2949640287769784
1.453347,10.633093525179856,-0.8225419664268585,-1.460431654676259
1.4583519999999999,11.0,-0.9592326139088729,-1.6978417266187051
1.4633569999999998,11.220623501199041,-1.0167865707434052,-1.9136690647482015
1.468362,11.280575539568344,-1.0311750599520384,-2.0839328537170263
1.4733669999999999,11.237410071942445,-1.0455635491606714,-2.2302158273381294
1.4783719999999998,11.11031175059952,-1.0479616306954436,-2.3453237410071943
1.483377,10.961630695443645,-1.0071942446043165,-2.3597122302158273
1.4883819999999999,10.83453237410072,-0.947242206235012,-2.306954436450839
1.4933869999999998,10.784172661870503,-0.894484412470024,-2.1199040767386093
1.498392,10.741007194244604,-0.8321342925659473,-1.86810551558753
1.5033969999999999,10.81294964028777,-0.750599520383693,-1.5419664268585132
1.5084019999999998,10.896882494004796,-0.7482014388489209,-1.129496402877698
1.513407,11.007194244604317,-0.7961630695443646,-0.750599520383693
1.5184119999999999,11.141486810551559,-0.7793764988009593,-0.38848920863309355
1.5234169999999998,11.314148681055157,-0.7769784172661871,-0.12949640287769784
1.528422,11.661870503597122,-0.7577937649880095,0.03597122302158273
1.5334269999999999,12.002398081534773,-0.9112709832134293,0.1510791366906475
1.5384319999999998,12.23021582733813,-1.1031175059952039,0.2805755395683453
1.543437,12.501199040767386,-1.1774580335731415,0.354916067146283
1.5484419999999999,12.577937649880097,-1.3093525179856116,0.3669064748201439
1.5534469999999998,12.525179856115107,-1.474820143884892,0.2973621103117506
1.558452,12.287769784172662,-1.6906474820143884,0.2278177458033573
1.5634569999999999,11.908872901678658,-1.7937649880095923,0.11990407673860912
1.5684619999999998,11.448441247002398,-1.7050359712230216,-0.045563549160671464
1.573467,11.059952038369305,-1.5323741007194245,-0.22541966426858512
1.5784719999999999,10.832134292565947,-1.3525179856115108,-0.38369304556354916
1.5834769999999998,10.652278177458033,-1.20863309352518,-0.5611510791366906
1.588482,10.60431654676259,-1.0551558752997603,-0.7242206235011991
1.5934869999999999,10.613908872901678,-0.9040767386091128,-0.8081534772182254
1.5984919999999998,10.664268585131895,-0.7026378896882494,-0.7482014388489209
1.603497,10.743405275779377,-0.4844124700239808,-0.6258992805755396
1.6085019999999999,10.80095923261391,-0.3117505995203837,-0.4676258992805755
1.6135069999999998,10.872901678657074,-0.17266187050359713,-0.26618705035971224
1.618512,10.961630695443645,-0.019184652278177457,-0.15587529976019185
1.6235169999999999,11.043165467625899,0.10311750599520383,-0.03836930455635491
1.6285219999999998,11.06714628297362,0.18705035971223022,0.09592326139088729
1.633527,11.057553956834532,0.36211031175059955,0.2278177458033573
1.6385319999999999,11.045563549160672,0.5563549160671463,0.35731414868105515
1.6435369999999998,11.05515587529976,0.7434052757793765,0.5251798561151079
1.648542,11.09832134292566,0.882494004796163,0.6762589928057554
1.6535469999999999,11.093525179856115,0.9928057553956835,0.7577937649880095
1.6585519999999998,11.057553956834532,1.052757793764988,0.8848920863309353
1.663557,11.040767386091128,1.0023980815347722,0.9496402877697842
1.6685619999999999,10.983213429256594,0.8920863309352518,1.0863309352517985
1.6735669999999998,10.94484412470024,0.8201438848920863,1.2014388489208634
1.678572,10.96642685851319,0.7577937649880095,1.3093525179856116
1.6835769999999999,11.07673860911271,0.580335731414868,1.4244604316546763
1.6885819999999998,11.19664268585132,0.38848920863309355,1.525179856115108
1.693587,11.304556354916068,0.2278177458033573,1.5779376498800959
1.6985919999999999,11.321342925659472,0.18465227817745802,1.6235011990407673
1.7035969999999998,11.278177458033573,0.15587529976019185,1.5995203836930456
1.708602,11.136690647482014,0.10311750599520383,1.5491606714628297
1.7136069999999999,10.841726618705035,0.07194244604316546,1.486810551558753
1.7186119999999998,10.46043165467626,0.08633093525179857,1.39568345323741
1.723617,10.011990407673862,0.14628297362110312,1.2565947242206235
1.7286219999999999,9.565947242206235,0.23980815347721823,1.143884892086331
1.7336269999999998,9.206235011990408,0.31894484412470026,1.0023980815347722
1.738632,8.856115107913668,0.46522781774580335,0.8321342925659473
1.7436369999999999,8.577937649880097,0.6714628297362111,0.5971223021582733
1.7486419999999998,8.402877697841726,0.8273381294964028,0.42685851318944845
1.753647,8.280575539568344,0.9496402877697842,0.3213429256594724
1.7586519999999999,8.160671462829736,1.023980815347722,0.3381294964028777
1.7636569999999998,7.968824940047962,1.0743405275779376,0.4172661870503597
1.768662,7.750599520383693,1.1534772182254196,0.5227817745803357
1.7736669999999999,7.5587529976019185,1.146282973621103,0.7338129496402878
1.7786719999999998,7.405275779376499,1.0767386091127098,0.9784172661870504
1.783677,7.323741007194244,1.0,1.158273381294964
1.7886819999999999,7.270983213429257,0.920863309352518,1.3477218225419665
1.7936869999999998,7.316546762589928,0.8872901678657075,1.4244604316546763
1.798692,7.388489208633094,0.8465227817745803,1.4676258992805755
1.8036969999999997,7.539568345323741,0.7745803357314148,1.4892086330935252
1.8087019999999998,7.767386091127098,0.60431654676259,1.4628297362110312
1.813707,8.035971223021583,0.45083932853717024,1.4124700239808154
1.8187119999999999,8.30695443645084,0.24940047961630696,1.3093525179856116
1.8237169999999998,8.549160671462829,0.11990407673860912,1.184652278177458
1.828722,8.65947242206235,0.03597122302158273,1.0551558752997603
1.8337269999999997,8.695443645083932,0.014388489208633094,0.9184652278177458
1.8387319999999998,8.695443645083932,0.050359712230215826,0.7913669064748201
1.843737,8.685851318944843,0.07913669064748201,0.6834532374100719
1.8487419999999999,8.681055155875299,0.09592326139088729,0.6762589928057554
1.8537469999999998,8.673860911270983,0.09352517985611511,0.7170263788968825
1.858752,8.661870503597122,0.12470023980815348,0.8585131894484412
1.8637569999999997,8.745803357314148,0.14148681055155876,1.014388489208633
1.8687619999999998,8.930455635491606,0.1342925659472422,1.1774580335731415
1.873767,9.177458033573142,0.10311750599520383,1.3093525179856116
1.8787719999999999,9.410071942446043,0.05275779376498801,1.4244604316546763
1.8837769999999998,9.580335731414868,0.0407673860911271,1.498800959232614
1.888782,9.707434052757794,0.02877697841726619,1.6115107913669064
1.8937869999999997,9.808153477218225,0.05755395683453238,1.7482014388489209
1.8987919999999998,9.877697841726619,0.03836930455635491,1.935251798561151
1.903797,9.916067146282973,-0.009592326139088728,2.1366906474820144
1.9088019999999999,9.959232613908872,-0.023980815347721823,2.292565947242206
1.9138069999999998,9.925659472422062,-0.02158273381294964,2.3956834532374103
1.918812,9.877697841726619,0.019184652278177457,2.460431654676259
1.9238169999999997,9.844124700239808,0.045563549160671464,2.436450839328537
1.9288219999999998,9.781774580335732,-0.014388489208633094,2.3956834532374103
1.933827,9.76978417266187,-0.11270983213429256,2.321342925659472
1.9388319999999999,9.851318944844124,-0.19184652278177458,2.199040767386091
1.9438369999999998,9.916067146282973,-0.26618705035971224,2.050359712230216
1.948842,9.976019184652278,-0.3381294964028777,1.8489208633093526
1.9538469999999997,9.992805755395683,-0.41007194244604317,1.7482014388489209
1.9588519999999998,9.952038369304557,-0.4172661870503597,1.589928057553957
1.963857,9.894484412470025,-0.36211031175059955,1.4172661870503598
1.968862,9.86810551558753,-0.35731414868105515,1.2733812949640289
1.9738669999999998,9.84652278177458,-0.40047961630695444,1.1486810551558753
1.9788719999999997,9.810551558752998,-0.4172661870503597,1.0167865707434052
1.9838769999999997,9.729016786570744,-0.4292565947242206,0.882494004796163
1.9888819999999998,9.635491606714629,-0.4172661870503597,0.7793764988009593
1.993887,9.453237410071942,-0.3908872901678657,0.6906474820143885
1.998892,9.287769784172662,-0.2565947242206235,0.5995203836930456
2.003897,9.026378896882495,-0.09592326139088729,0.4724220623501199
2.008902,8.76978417266187,0.09832134292565947,0.3980815347721823
2.0139069999999997,8.616306954436451,0.23261390887290168,0.33573141486810554
2.018912,8.477218225419664,0.2997601918465228,0.3381294964028777
2.023917,8.378896882494004,0.3117505995203837,0.33573141486810554
2.0289219999999997,8.32853717026379,0.33573141486810554,0.37889688249400477
2.033927,8.350119904076738,0.3069544364508393,0.41007194244604317
2.038932,8.369304556354916,0.19424460431654678,0.45083932853717024
2.0439369999999997,8.450839328537171,0.11750599520383694,0.4628297362110312
2.048942,8.580335731414868,0.05515587529976019,0.3764988009592326
2.053947,8.714628297362111,0.03597122302158273,0.2853717026378897
2.0589519999999997,8.844124700239808,0.026378896882494004,0.1750599520383693
2.063957,8.913669064748202,0.016786570743405275,0.06954436450839328
2.068962,8.973621103117505,0.03836930455635491,-0.002398081534772182
2.0739669999999997,9.13189448441247,0.050359712230215826,-0.047961630695443645
2.078972,9.316546762589928,-0.0407673860911271,-0.05755395683453238
2.083977,9.462829736211031,-0.14628297362110312,-0.04316546762589928
2.0889819999999997,9.563549160671462,-0.16786570743405277,-0.10071942446043165
2.093987,9.700239808153476,-0.18944844124700239,-0.12949640287769784
2.098992,9.829736211031175,-0.19184652278177458,-0.11750599520383694
2.1039969999999997,9.952038369304557,-0.19904076738609114,-0.10311750599520383
2.109002,10.117505995203837,-0.19664268585131894,-0.09592326139088729
2.114007,10.2757793764988,-0.21103117505995203,-0.050359712230215826
2.1190119999999997,10.46043165467626,-0.30935251798561153,0.0
2.124017,10.575539568345324,-0.30935251798561153,0.050359712230215826
2.129022,10.589928057553957,-0.4028776978417266,0.1630695443645084
2.1340269999999997,10.707434052757794,-0.6235011990407674,0.21103117505995203
2.139032,10.70263788968825,-0.6306954436450839,0.1750599520383693
2.144037,10.66906474820144,-0.7218225419664268,0.11270983213429256
2.1490419999999997,10.465227817745804,-0.5227817745803357,-0.016786570743405275
2.154047,10.244604316546763,-0.23501199040767387,-0.1750599520383693
2.159052,10.083932853717027,0.007194244604316547,-0.42206235011990406
2.1640569999999997,9.995203836930456,0.1774580335731415,-0.645083932853717
2.169062,9.942446043165468,0.3069544364508393,-0.8177458033573142
2.174067,9.940047961630695,0.434052757793765,-0.973621103117506
2.1790719999999997,9.937649880095924,0.565947242206235,-0.9856115107913669
2.184077,9.892086330935252,0.657074340527578,-0.9520383693045563
2.189082,9.764988009592326,0.6834532374100719,-0.7913669064748201
2.1940869999999997,9.582733812949641,0.7002398081534772,-0.5035971223021583
2.199092,9.419664268585132,0.7242206235011991,-0.2541966426858513
2.204097,9.215827338129497,0.697841726618705,0.03357314148681055
2.2091019999999997,8.992805755395683,0.7410071942446043,0.34772182254196643
2.214107,8.76978417266187,0.8393285371702638,0.6426858513189448
2.219112,8.630695443645084,0.9592326139088729,0.935251798561151
2.2241169999999997,8.496402877697841,1.052757793764988,1.2134292565947242
2.229122,8.354916067146283,1.1918465227817745,1.4484412470023982
2.234127,8.247002398081534,1.2733812949640289,1.6618705035971224
2.2391319999999997,8.254196642685852,1.3453237410071943,1.8465227817745804
2.244137,8.333333333333334,1.3501199040767387,1.9976019184652278
2.249142,8.302158273381295,1.4004796163069544,2.0431654676258995
2.2541469999999997,8.388489208633093,1.3788968824940049,2.038369304556355
2.259152,8.62589928057554,1.2470023980815348,1.959232613908873
2.2641569999999995,8.940047961630695,1.1270983213429258,1.7673860911270982
2.2691619999999997,9.311750599520384,0.9328537170263789,1.5275779376498801
2.274167,9.621103117505996,0.7170263788968825,1.3477218225419665
2.2791719999999995,9.880095923261392,0.42685851318944845,1.1894484412470023
2.2841769999999997,10.023980815347722,0.23261390887290168,0.9760191846522782
2.289182,10.071942446043165,0.10071942446043165,0.6954436450839329
2.2941869999999995,10.028776978417266,0.0,0.4052757793764988
2.2991919999999997,9.930455635491606,-0.08872901678657075,0.21103117505995203
2.304197,9.796163069544365,-0.14148681055155876,0.03117505995203837
2.3092019999999995,9.630695443645084,-0.1223021582733813,-0.12949640287769784
2.3142069999999997,9.49400479616307,-0.11510791366906475,-0.2637889688249401
2.319212,9.47242206235012,-0.1366906474820144,-0.3908872901678657
2.3242169999999995,9.510791366906474,-0.15827338129496402,-0.5419664268585132
2.3292219999999997,9.503597122302159,-0.1510791366906475,-0.6330935251798561
2.334227,9.455635491606715,-0.047961630695443645,-0.7002398081534772
2.3392319999999995,9.371702637889689,0.10311750599520383,-0.7050359712230215
2.3442369999999997,9.285371702637889,0.2637889688249401,-0.6618705035971223
2.349242,9.184652278177458,0.42685851318944845,-0.5611510791366906
2.3542469999999995,9.11031175059952,0.5611510791366906,-0.539568345323741
2.3592519999999997,9.059952038369305,0.6019184652278178,-0.4724220623501199
2.364257,9.06714628297362,0.580335731414868,-0.4292565947242206
2.3692619999999995,9.16306954436451,0.5419664268585132,-0.3932853717026379
2.3742669999999997,9.309352517985612,0.5251798561151079,-0.44364508393285373
2.379272,9.477218225419664,0.44844124700239807,-0.46522781774580335
2.3842769999999995,9.661870503597122,0.38369304556354916,-0.5515587529976019
2.3892819999999997,9.848920863309353,0.3333333333333333,-0.6930455635491607
2.394287,10.11031175059952,0.3261390887290168,-0.8848920863309353
2.3992919999999995,10.402877697841726,0.2853717026378897,-1.0335731414868106
2.4042969999999997,10.707434052757794,0.2014388489208633,-1.1630695443645085
2.409302,10.94484412470024,0.1366906474820144,-1.316546762589928
2.4143069999999995,11.100719424460431,0.13908872901678657,-1.419664268585132
2.4193119999999997,11.203836930455635,0.1750599520383693,-1.4436450839328536
2.424317,11.278177458033573,0.22302158273381295,-1.4244604316546763
2.4293219999999995,11.354916067146283,0.1510791366906475,-1.3717026378896882
2.4343269999999997,11.46043165467626,-0.019184652278177457,-1.2446043165467626
2.439332,11.580335731414868,-0.2517985611510791,-0.9976019184652278
2.4443369999999995,11.618705035971223,-0.5035971223021583,-0.6762589928057554
2.4493419999999997,11.618705035971223,-0.697841726618705,-0.29256594724220625
2.454347,11.582733812949641,-0.8345323741007195,0.04316546762589928
2.4593519999999995,11.448441247002398,-0.9280575539568345,0.3333333333333333
2.4643569999999997,11.357314148681056,-0.9664268585131894,0.5995203836930456
2.469362,11.237410071942445,-1.0119904076738608,0.8896882494004796
2.4743669999999995,11.103117505995204,-1.0431654676258992,1.1127098321342925
2.4793719999999997,10.959232613908872,-1.0191846522781776,1.3237410071942446
2.484377,10.726618705035971,-0.9496402877697842,1.4964028776978417
2.4893819999999995,10.414868105515588,-0.9088729016786571,1.5299760191846523
2.4943869999999997,10.057553956834532,-0.7889688249400479,1.5779376498800959
2.499392,9.750599520383693,-0.6187050359712231,1.6211031175059951
2.5043969999999995,9.414868105515588,-0.5179856115107914,1.6330935251798562
2.5094019999999997,9.103117505995204,-0.45323741007194246,1.5851318944844124
2.514407,8.860911270983214,-0.4244604316546763,1.515587529976019
2.5194119999999995,8.661870503597122,-0.44844124700239807,1.4412470023980815
2.5244169999999997,8.551558752997602,-0.44844124700239807,1.3525179856115108
2.529422,8.398081534772182,-0.47721822541966424,1.235011990407674
2.5344269999999995,8.232613908872901,-0.5155875299760192,1.1342925659472423
2.5394319999999997,8.043165467625899,-0.5155875299760192,1.038369304556355
2.544437,7.858513189448441,-0.5299760191846523,0.9400479616306955
2.5494419999999995,7.712230215827338,-0.5347721822541966,0.841726618705036
2.5544469999999997,7.7026378896882495,-0.5275779376498801,0.7769784172661871
2.559452,7.820143884892087,-0.5851318944844125,0.7386091127098321
2.5644569999999995,8.047961630695443,-0.697841726618705,0.6211031175059952
2.5694619999999997,8.393285371702637,-0.8968824940047961,0.4628297362110312
2.574467,8.863309352517986,-1.1414868105515588,0.2685851318944844
2.5794719999999995,9.335731414868105,-1.3788968824940049,0.0671462829736211
2.5844769999999997,9.743405275779377,-1.6067146282973621,-0.14388489208633093
2.589482,10.059952038369305,-1.774580335731415,-0.40047961630695444
2.5944869999999995,10.318944844124701,-1.8369304556354915,-0.657074340527578
2.5994919999999997,10.525179856115107,-1.8896882494004796,-0.8896882494004796
2.604497,10.597122302158274,-1.9640287769784173,-1.0335731414868106
2.6095019999999995,10.633093525179856,-1.9520383693045564,-1.1870503597122302
2.6145069999999997,10.611510791366907,-1.8729016786570742,-1.3741007194244603
2.619512,10.541966426858513,-1.7194244604316546,-1.5755395683453237
2.6245169999999995,10.46043165467626,-1.4700239808153477,-1.776978417266187
2.6295219999999997,10.378896882494004,-1.249400479616307,-2.0407673860911273
2.634527,10.359712230215827,-1.0311750599520384,-2.2517985611510793
2.6395319999999995,10.30695443645084,-0.815347721822542,-2.4436450839328536
2.6445369999999997,10.299760191846524,-0.6067146282973621,-2.54916067146283
2.649542,10.302158273381295,-0.4580335731414868,-2.6115107913669067
2.6545469999999995,10.282973621103118,-0.2446043165467626,-2.695443645083933
2.6595519999999997,10.2757793764988,-0.15347721822541965,-2.6858513189448443
2.664557,10.29496402877698,-0.06954436450839328,-2.661870503597122
2.6695619999999995,10.321342925659472,0.03357314148681055,-2.6354916067146283
2.6745669999999997,10.390887290167866,0.08872901678657075,-2.5995203836930454
2.679572,10.474820143884893,0.11270983213429256,-2.5059952038369304
2.6845769999999995,10.585131894484412,0.15827338129496402,-2.402877697841727
2.6895819999999997,10.70503597122302,0.19424460431654678,-2.2206235011990407
2.694587,10.851318944844124,0.18225419664268586,-1.9640287769784173
2.6995919999999995,10.976019184652278,0.20623501199040767,-1.7050359712230216
2.7045969999999997,11.079136690647482,0.20863309352517986,-1.4292565947242206
2.709602,11.215827338129497,0.17985611510791366,-1.1270983213429258
2.7146069999999995,11.42925659472422,0.17026378896882494,-0.7146282973621103
2.7196119999999997,11.73621103117506,0.18944844124700239,-0.33093525179856115
2.724617,12.16546762589928,0.1774580335731415,-0.047961630695443645
2.7296219999999995,12.630695443645084,0.11750599520383694,0.19424460431654678
2.7346269999999997,12.988009592326138,-0.02158273381294964,0.36211031175059955
2.739632,13.419664268585132,-0.09592326139088729,0.47002398081534774
2.7446369999999995,13.613908872901678,-0.23261390887290168,0.48201438848920863
2.7496419999999997,13.599520383693045,-0.4244604316546763,0.60431654676259
2.754647,13.556354916067146,-0.5851318944844125,0.6187050359712231
2.7596519999999995,13.553956834532373,-0.6522781774580336,0.4748201438848921
2.7646569999999997,13.376498800959233,-0.7242206235011991,0.23261390887290168
2.769662,13.146282973621103,-0.7913669064748201,-0.04316546762589928
2.7746669999999996,12.81294964028777,-0.762589928057554,-0.38369304556354916
2.7796719999999997,12.405275779376499,-0.6211031175059952,-0.6618705035971223
2.784677,12.0,-0.4316546762589928,-0.8321342925659473
2.7896819999999996,11.582733812949641,-0.3069544364508393,-0.8129496402877698
2.7946869999999997,11.225419664268586,-0.24700239808153476,-0.6786570743405276
2.799692,11.02158273381295,-0.20623501199040767,-0.5251798561151079
2.8046969999999996,10.84652278177458,-0.1510791366906475,-0.36930455635491605
2.8097019999999997,10.678657074340528,-0.03836930455635491,-0.1774580335731415
2.814707,10.458033573141487,0.09352517985611511,0.02877697841726619
2.8197119999999996,10.30695443645084,0.2637889688249401,0.23501199040767387
2.8247169999999997,10.18705035971223,0.5107913669064749,0.4364508393285372
2.829722,10.155875299760192,0.7458033573141487,0.6187050359712231
2.8347269999999996,10.201438848920864,0.8705035971223022,0.8177458033573142
2.8397319999999997,10.311750599520384,0.8896882494004796,1.0287769784172662
2.844737,10.42925659472422,0.8537170263788969,1.1151079136690647
2.8497419999999996,10.537170263788969,0.7673860911270983,1.0935251798561152
2.8547469999999997,10.549160671462829,0.6930455635491607,1.0551558752997603
2.859752,10.522781774580336,0.5971223021582733,0.9664268585131894
2.8647569999999996,10.482014388489208,0.49160671462829736,0.7745803357314148
2.8697619999999997,10.381294964028777,0.41247002398081534,0.5731414868105515
2.874767,10.19904076738609,0.4172661870503597,0.36211031175059955
2.8797719999999996,9.980815347721823,0.47961630695443647,0.1630695443645084
2.8847769999999997,9.745803357314148,0.5947242206235012,0.06954436450839328
2.889782,9.448441247002398,0.6954436450839329,-0.06235011990407674
2.8947869999999996,9.19904076738609,0.8441247002398081,-0.18944844124700239
2.8997919999999997,9.059952038369305,0.988009592326139,-0.2278177458033573
2.904797,9.007194244604317,1.1151079136690647,-0.2973621103117506
2.9098019999999996,9.02158273381295,1.249400479616307,-0.2973621103117506
2.9148069999999997,9.105515587529975,1.3045563549160673,-0.23980815347721823
2.919812,9.220623501199041,1.314148681055156,-0.1486810551558753
2.9248169999999996,9.2757793764988,1.2997601918465227,-0.019184652278177457
2.9298219999999997,9.359712230215827,1.2613908872901678,0.20863309352517986
2.934827,9.42925659472422,1.1822541966426858,0.5155875299760192
2.9398319999999996,9.556354916067146,1.0455635491606714,0.8057553956834532
2.9448369999999997,9.707434052757794,0.8776978417266187,1.0215827338129497
2.949842,9.875299760191847,0.6642685851318945,1.1558752997601918
2.9548469999999996,9.947242206235012,0.4892086330935252,1.223021582733813
2.9598519999999997,9.92326139088729,0.3932853717026379,1.184652278177458
2.964857,9.863309352517986,0.42206235011990406,1.038369304556355
2.9698619999999996,9.750599520383693,0.47002398081534774,0.8441247002398081
2.9748669999999997,9.666666666666666,0.5491606714628298,0.6187050359712231
2.979872,9.649880095923262,0.5515587529976019,0.4148681055155875
2.9848769999999996,9.695443645083932,0.5635491606714629,0.21342925659472423
2.9898819999999997,9.714628297362111,0.5107913669064749,0.045563549160671464
2.994887,9.707434052757794,0.5011990407673861,-0.13908872901678657
2.9998919999999996,9.563549160671462,0.4460431654676259,-0.19664268585131894
3.0048969999999997,9.393285371702637,0.41247002398081534,-0.27817745803357313
3.009877099502487,9.172661870503598,0.4028776978417266,-0.41247002398081534
3.014857199004975,8.899280575539569,0.434052757793765,-0.5251798561151079
3.019837298507462,8.733812949640289,0.4460431654676259,-0.5155875299760192
3.02481739800995,8.606714628297363,0.4844124700239808,-0.5107913669064749
3.0297974975124373,8.467625899280575,0.49640287769784175,-0.45083932853717024
3.034777597014925,8.273381294964029,0.5371702637889688,-0.4028776978417266
3.0397576965174125,8.143884892086332,0.5995203836930456,-0.290167865707434
3.0447377960199002,8.035971223021583,0.7194244604316546,-0.18944844124700239
3.0497178955223876,7.973621103117506,0.829736211031175,-0.0407673860911271
3.0546979950248754,8.007194244604317,0.9328537170263789,0.002398081534772182
3.0596780945273627,8.107913669064748,1.0503597122302157,0.02158273381294964
3.0646581940298505,8.247002398081534,1.1558752997601918,0.11750599520383694
3.069638293532338,8.42925659472422,1.1918465227817745,0.2733812949640288
3.0746183930348256,8.741007194244604,1.119904076738609,0.407673860911271
3.079598492537313,9.15347721822542,0.9112709832134293,0.4148681055155875
3.084578592039801,9.544364508393285,0.6882494004796164,0.34532374100719426
3.089558691542288,9.820143884892087,0.4724220623501199,0.2589928057553957
3.094538791044776,9.971223021582734,0.3333333333333333,0.18225419664268586
3.0995188905472633,10.047961630695443,0.2853717026378897,0.09112709832134293
3.104498990049751,10.079136690647482,0.31654676258992803,0.002398081534772182
3.1094790895522384,10.02158273381295,0.3237410071942446,-0.12949640287769784
3.114459189054726,9.959232613908872,0.24940047961630696,-0.2302158273381295
3.1194392885572135,9.976019184652278,0.10551558752997602,-0.302158273381295
3.1244193880597013,10.016786570743406,0.007194244604316547,-0.26618705035971224
3.1293994875621887,10.124700239808153,-0.06474820143884892,-0.23501199040767387
3.1343795870646765,10.258992805755396,-0.12470023980815348,-0.2829736211031175
3.139359686567164,10.29736211031175,-0.1079136690647482,-0.4244604316546763
3.1443397860696516,10.323741007194245,-0.026378896882494004,-0.5419664268585132
3.149319885572139,10.364508393285371,0.002398081534772182,-0.6498800959232613
3.1542999850746267,10.474820143884893,-0.016786570743405275,-0.6139088729016786
3.159280084577114,10.585131894484412,-0.13189448441247004,-0.5035971223021583
3.164260184079602,10.633093525179856,-0.15827338129496402,-0.2805755395683453
3.169240283582089,10.597122302158274,-0.09352517985611511,0.011990407673860911
3.174220383084577,10.517985611510792,0.09592326139088729,0.3261390887290168
3.1792004825870643,10.441247002398082,0.3069544364508393,0.6426858513189448
3.184180582089552,10.369304556354916,0.5371702637889688,0.9424460431654677
3.1891606815920395,10.280575539568344,0.6642685851318945,1.1366906474820144
3.1941407810945273,10.287769784172662,0.7290167865707434,1.2949640287769784
3.1991208805970146,10.318944844124701,0.8177458033573142,1.407673860911271
3.204100980099502,10.335731414868105,0.8729016786570744,1.484412470023981
3.2090810796019897,10.357314148681056,0.8992805755395683,1.5707434052757794
3.214061179104477,10.335731414868105,0.8633093525179856,1.6378896882494005
3.219041278606965,10.24220623501199,0.86810551558753,1.580335731414868
3.224021378109452,10.105515587529975,0.8657074340527577,1.5083932853717026
3.22900147761194,10.047961630695443,0.8369304556354916,1.3453237410071943
3.2339815771144274,10.047961630695443,0.7410071942446043,1.20863309352518
3.238961676616915,10.15347721822542,0.645083932853717,1.0479616306954436
3.2439417761194025,10.273381294964029,0.592326139088729,0.920863309352518
3.2489218756218903,10.376498800959233,0.4940047961630695,0.8081534772182254
3.2539019751243776,10.431654676258994,0.4412470023980815,0.7482014388489209
3.2588820746268654,10.390887290167866,0.3237410071942446,0.6474820143884892
3.2638621741293528,10.34052757793765,0.2278177458033573,0.5083932853717026
3.2688422736318405,10.273381294964029,0.1630695443645084,0.4580335731414868
3.273822373134328,10.206235011990408,0.11270983213429256,0.4052757793764988
3.2788024726368157,10.158273381294965,0.07913669064748201,0.4364508393285372
3.283782572139303,10.177458033573142,0.13189448441247004,0.48201438848920863
3.288762671641791,10.218225419664268,0.23741007194244604,0.513189448441247
3.293742771144278,10.282973621103118,0.3237410071942446,0.43884892086330934
3.298722870646766,10.388489208633093,0.3980815347721823,0.3980815347721823
3.3037029701492533,10.517985611510792,0.4364508393285372,0.4244604316546763
3.308683069651741,10.681055155875299,0.36930455635491605,0.4412470023980815
3.3136631691542284,10.856115107913668,0.2685851318944844,0.43884892086330934
3.318643268656716,10.952038369304557,0.19424460431654678,0.5083932853717026
3.3236233681592036,10.906474820143885,0.24940047961630696,0.5827338129496403
3.3286034676616914,10.717026378896882,0.37889688249400477,0.6306954436450839
3.3335835671641787,10.49400479616307,0.4844124700239808,0.7386091127098321
3.3385636666666665,10.316546762589928,0.5683453237410072,0.8896882494004796
3.343543766169154,10.184652278177458,0.5851318944844125,0.9952038369304557
3.3485238656716416,10.028776978417266,0.5611510791366906,1.0767386091127098
3.353503965174129,9.92326139088729,0.5491606714628298,1.0839328537170263
3.3584840646766168,9.872901678657074,0.539568345323741,0.988009592326139
3.363464164179104,9.863309352517986,0.5947242206235012,0.7913669064748201
3.368444263681592,9.920863309352518,0.5707434052757794,0.6067146282973621
3.3734243631840792,9.954436450839328,0.4412470023980815,0.4412470023980815
3.3784044626865666,9.959232613908872,0.38609112709832133,0.2733812949640288
3.3833845621890544,9.97841726618705,0.36211031175059955,0.12709832134292565
3.388364661691542,9.990407673860911,0.23741007194244604,0.014388489208633094
3.3933447611940295,9.983213429256594,0.2014388489208633,-0.11990407673860912
3.398324860696517,9.997601918465227,0.19664268585131894,-0.24700239808153476
3.4033049601990046,10.0,0.20623501199040767,-0.381294964028777
3.4082850597014924,9.964028776978417,0.2709832134292566,-0.5419664268585132
3.4132651592039798,9.92326139088729,0.38609112709832133,-0.709832134292566
3.418245258706467,9.88968824940048,0.4988009592326139,-0.8513189448441247
3.423225358208955,9.880095923261392,0.6163069544364509,-1.0215827338129497
3.4282054577114427,9.906474820143885,0.7553956834532374,-1.1103117505995204
3.43318555721393,9.92326139088729,0.8009592326139089,-1.1414868105515588
3.4381656567164174,9.983213429256594,0.8752997601918465,-1.1103117505995204
3.443145756218905,10.122302158273381,0.8968824940047961,-1.0335731414868106
3.4481258557213925,10.268585131894485,0.8776978417266187,-0.9928057553956835
3.4531059552238803,10.419664268585132,0.815347721822542,-0.9544364508393285
3.4580860547263677,10.532374100719425,0.7482014388489209,-0.9664268585131894
3.4630661542288554,10.640287769784173,0.709832134292566,-0.9592326139088729
3.468046253731343,10.685851318944843,0.7122302158273381,-1.0311750599520384
3.4730263532338306,10.743405275779377,0.750599520383693,-1.1510791366906474
3.478006452736318,10.7242206235012,0.7721822541966427,-1.2422062350119905
3.4829865522388057,10.618705035971223,0.7793764988009593,-1.3045563549160673
3.487966651741293,10.431654676258994,0.7793764988009593,-1.3477218225419665
3.492946751243781,10.239808153477219,0.8249400479616307,-1.34052757793765
3.497926850746268,10.035971223021583,0.8992805755395683,-1.2470023980815348
3.502906950248756,9.80335731414868,0.9712230215827338,-1.1654676258992807
3.5078870497512433,9.59232613908873,1.0503597122302157,-1.0815347721822541
3.512867149253731,9.338129496402878,1.1534772182254196,-1.0095923261390887
3.5178472487562185,9.081534772182254,1.2613908872901678,-0.920863309352518
3.5228273482587062,8.798561151079136,1.39568345323741,-0.8657074340527577
3.5278074477611936,8.491606714628297,1.5755395683453237,-0.7577937649880095
3.5327875472636814,8.237410071942445,1.671462829736211,-0.5827338129496403
3.5377676467661687,8.009592326139089,1.764988009592326,-0.2565947242206235
3.5427477462686565,7.976019184652278,1.9328537170263789,-0.04316546762589928
3.547727845771144,7.937649880095924,2.091127098321343,0.014388489208633094
3.552707945273631,7.925659472422062,2.0887290167865706,0.12709832134292565
3.557688044776119,7.990407673860911,1.9184652278177459,0.3117505995203837
3.562668144278607,7.880095923261391,2.1414868105515588,0.3908872901678657
3.567648243781094,7.685851318944844,2.304556354916067,0.5851318944844125
3.5726283432835815,7.625899280575539,2.239808153477218,0.8105515587529976
3.5776084427860693,7.654676258992806,2.160671462829736,0.9976019184652278
3.582588542288557,7.764988009592326,1.9952038369304557,1.1870503597122302
3.5875686417910444,7.976019184652278,1.8081534772182255,1.2949640287769784
3.5925487412935317,8.235011990407674,1.6618705035971224,1.3501199040767387
3.5975288407960195,8.450839328537171,1.3477218225419665,1.4268585131894485
3.6025089402985073,8.678657074340528,1.091127098321343,1.5971223021582734
3.6074890398009947,8.860911270983214,0.8393285371702638,1.565947242206235
3.612469139303482,8.894484412470025,0.6139088729016786,1.5275779376498801
3.61744923880597,8.990407673860911,0.4244604316546763,1.5227817745803358
3.6224293383084576,9.047961630695443,0.21103117505995203,1.4436450839328536
3.627409437810945,9.074340527577938,0.002398081534772182,1.3189448441247003
3.6323895373134323,9.18705035971223,-0.1750599520383693,1.1654676258992807
3.63736963681592,9.309352517985612,-0.3669064748201439,1.0503597122302157
3.642349736318408,9.49400479616307,-0.5515587529976019,0.9112709832134293
3.647329835820895,9.62589928057554,-0.6187050359712231,0.7482014388489209
3.6523099353233826,9.729016786570744,-0.709832134292566,0.5899280575539568
3.6572900348258703,9.94484412470024,-0.9688249400479616,0.47961630695443647
3.6622701343283577,10.107913669064748,-1.023980815347722,0.3069544364508393
3.6672502338308455,10.16546762589928,-1.026378896882494,0.18705035971223022
3.672230333333333,10.304556354916068,-1.1151079136690647,0.09592326139088729
3.6772104328358206,10.443645083932854,-1.119904076738609,-0.05515587529976019
3.6821905323383084,10.498800959232614,-1.064748201438849,-0.14628297362110312
3.6871706318407957,10.623501199040767,-1.0191846522781776,-0.11031175059952038
3.692150731343283,10.73621103117506,-1.0095923261390887,-0.03836930455635491
3.697130830845771,10.762589928057555,-0.973621103117506,0.014388489208633094
3.702110930348258,10.731414868105515,-0.9280575539568345,0.05515587529976019
3.707091029850746,10.532374100719425,-0.9256594724220624,0.07673860911270983
3.7120711293532334,10.220623501199041,-0.9040767386091128,0.07673860911270983
3.717051228855721,9.858513189448441,-0.8057553956834532,0.023980815347721823
3.7220313283582085,9.525179856115107,-0.7050359712230215,-0.1079136690647482
3.7270114278606963,9.167865707434053,-0.5107913669064749,-0.35251798561151076
3.7319915273631836,8.820143884892087,-0.3213429256594724,-0.697841726618705
3.7369716268656714,8.657074340527577,-0.050359712230215826,-1.0815347721822541
3.7419517263681588,8.623501199040767,0.2853717026378897,-1.3669064748201438
3.746931825870646,8.642685851318944,0.6498800959232613,-1.6618705035971224
3.751911925373134,8.738609112709833,0.8968824940047961,-1.959232613908873
3.7568920248756217,8.884892086330936,1.0695443645083933,-2.1486810551558753
3.761872124378109,9.011990407673862,1.196642685851319,-2.2973621103117505
3.766852223880597,9.13189448441247,1.1774580335731415,-2.4964028776978417
3.771832323383084,9.239808153477219,1.0767386091127098,-2.6019184652278176
3.776812422885572,9.345323741007194,0.9904076738609112,-2.673860911270983
3.7817925223880593,9.491606714628297,0.9088729016786571,-2.7170263788968825
3.7867726218905466,9.661870503597122,0.829736211031175,-2.7050359712230216
3.7917527213930344,9.774580335731414,0.709832134292566,-2.58273381294964
3.796732820895522,9.776978417266188,0.6762589928057554,-2.3788968824940047
3.8017129203980096,9.661870503597122,0.8201438848920863,-2.1390887290167866
3.806693019900497,9.532374100719425,0.9976019184652278,-1.7697841726618706
3.8116731194029847,9.436450839328538,1.160671462829736,-1.328537170263789
3.8166532189054725,9.393285371702637,1.3908872901678657,-0.9568345323741008
3.82163331840796,9.446043165467627,1.671462829736211,-0.6954436450839329
3.826613417910447,9.589928057553957,1.9304556354916067,-0.36211031175059955
3.831593517412935,9.712230215827338,2.038369304556355,0.05995203836930456
3.8365736169154223,9.870503597122303,2.062350119904077,0.5683453237410072
3.84155371641791,10.167865707434053,1.985611510791367,1.13189448441247
3.8465338159203974,10.522781774580336,1.8513189448441247,1.6738609112709832
3.8515139154228852,10.894484412470025,1.5563549160671464,2.091127098321343
3.856494014925373,11.235011990407674,1.158273381294964,2.3764988009592325
3.8614741144278604,11.551558752997602,0.750599520383693,2.5251798561151078
3.8664542139303477,11.856115107913668,0.354916067146283,2.45083932853717
3.8714343134328355,12.086330935251798,0.09112709832134293,2.1079136690647484
3.876414412935323,12.213429256594724,0.05275779376498801,1.6546762589928057
3.8813945124378106,12.179856115107913,0.17985611510791366,1.1726618705035972
3.886374611940298,12.16306954436451,0.14148681055155876,0.8129496402877698
3.8913547114427858,12.172661870503598,0.047961630695443645,0.49640287769784175
3.896334810945273,12.038369304556355,0.17985611510791366,0.27577937649880097
3.901314910447761,11.793764988009592,0.407673860911271,0.22062350119904076
3.9062950099502483,11.477218225419664,0.434052757793765,0.40047961630695444
3.911275109452736,11.083932853717027,0.30935251798561153,0.7122302158273381
3.9162552089552234,10.621103117505996,0.23741007194244604,1.079136690647482
3.9212353084577107,10.182254196642686,0.2973621103117506,1.39568345323741
3.9262154079601985,9.635491606714629,0.5155875299760192,1.6402877697841727
3.9311955074626863,9.15347721822542,0.6666666666666666,1.935251798561151
3.9361756069651737,8.815347721822542,0.6738609112709832,2.1654676258992804
3.9411557064676614,8.589928057553957,0.5995203836930456,2.287769784172662
3.946135805970149,8.448441247002398,0.513189448441247,2.194244604316547
3.9511159054726366,8.225419664268586,0.5371702637889688,1.973621103117506
3.956096004975124,7.896882494004796,0.5251798561151079,1.8225419664268585
3.9610761044776113,7.824940047961631,0.5011990407673861,1.671462829736211
3.966056203980099,7.870503597122302,0.47721822541966424,1.4460431654676258
3.971036303482587,8.023980815347722,0.39568345323741005,1.2446043165467626
3.976016402985074,8.191846522781775,0.23741007194244604,1.0599520383693046
3.9809965024875615,8.292565947242206,0.19904076738609114,0.8273381294964028
3.9859766019900493,8.326139088729017,0.27577937649880097,0.6858513189448441
3.990956701492537,8.33093525179856,0.328537170263789,0.657074340527578
3.9959368009950245,8.345323741007194,0.3501199040767386,0.7434052757793765
4.000916900497512,8.422062350119903,0.28776978417266186,0.8992805755395683
4.005896999999999,8.465227817745804,0.20623501199040767,1.040767386091127
4.010901999999999,8.501199040767386,0.19664268585131894,1.2565947242206235
4.0159069999999994,8.549160671462829,0.2637889688249401,1.4436450839328536
4.020911999999999,8.628297362110311,0.4148681055155875,1.5347721822541966
4.025916999999999,8.81294964028777,0.4412470023980815,1.4916067146282974
4.0309219999999994,9.014388489208633,0.3645083932853717,1.419664268585132
4.035926999999999,9.220623501199041,0.3069544364508393,1.2733812949640289
4.040931999999999,9.477218225419664,0.23980815347721823,1.0839328537170263
4.0459369999999995,9.697841726618705,0.18465227817745802,0.8513189448441247
4.050941999999999,9.954436450839328,0.1774580335731415,0.6067146282973621
4.055946999999999,10.352517985611511,0.08393285371702638,0.33573141486810554
4.0609519999999995,10.820143884892087,-0.10311750599520383,0.03357314148681055
4.065956999999999,11.390887290167866,-0.3908872901678657,-0.26139088729016785
4.070961999999999,11.964028776978417,-0.5491606714628298,-0.6882494004796164
4.0759669999999995,12.191846522781775,-0.7386091127098321,-1.0479616306954436
4.080971999999999,12.690647482014388,-1.1079136690647482,-1.2805755395683454
4.085976999999999,12.853717026378897,-1.354916067146283,-1.4532374100719425
4.0909819999999995,13.155875299760192,-1.5275779376498801,-1.6211031175059951
4.095986999999999,13.285371702637889,-1.7074340527577938,-1.7793764988009593
4.100991999999999,13.220623501199041,-1.908872901678657,-1.8752997601918466
4.1059969999999995,13.160671462829736,-1.976019184652278,-1.9448441247002397
4.111001999999999,13.05515587529976,-1.9016786570743405,-2.062350119904077
4.116006999999999,12.817745803357314,-1.6474820143884892,-2.20863309352518
4.1210119999999995,12.37410071942446,-1.2134292565947242,-2.304556354916067
4.126016999999999,11.940047961630695,-0.8057553956834532,-2.2829736211031175
4.131021999999999,11.52757793764988,-0.5227817745803357,-2.0743405275779376
4.1360269999999995,11.175059952038369,-0.3333333333333333,-1.7937649880095923
4.141031999999999,10.875299760191847,-0.21103117505995203,-1.474820143884892
4.146036999999999,10.563549160671462,-0.11990407673860912,-0.9976019184652278
4.1510419999999995,10.16546762589928,0.18944844124700239,-0.5251798561151079
4.156046999999999,9.743405275779377,0.4940047961630695,-0.026378896882494004
4.161051999999999,9.390887290167866,0.7529976019184652,0.354916067146283
4.1660569999999995,8.853717026378897,0.8920863309352518,0.709832134292566
4.171061999999999,8.56115107913669,1.1558752997601918,1.0191846522781776
4.176066999999999,8.309352517985612,1.4460431654676258,1.2541966426858513
4.1810719999999995,8.002398081534773,1.5995203836930456,1.5779376498800959
4.186076999999999,7.84652278177458,1.7625899280575539,1.856115107913669
4.191081999999999,7.779376498800959,1.9832134292565948,2.115107913669065
4.1960869999999995,7.661870503597123,2.1342925659472423,2.2853717026378897
4.201091999999999,7.729016786570743,2.239808153477218,2.3141486810551557
4.206096999999999,7.942446043165468,2.199040767386091,2.278177458033573
4.2111019999999995,8.254196642685852,1.9184652278177459,2.0719424460431655
4.216106999999999,8.503597122302159,1.5635491606714629,1.7601918465227817
4.221111999999999,8.57074340527578,1.34052757793765,1.5275779376498801
4.2261169999999995,8.563549160671462,1.3045563549160673,1.2326139088729018
4.231121999999999,8.53956834532374,1.2158273381294964,0.9160671462829736
4.236126999999999,8.206235011990408,1.129496402877698,0.6306954436450839
4.2411319999999995,8.011990407673862,1.3884892086330936,0.27577937649880097
4.246136999999999,7.779376498800959,1.5947242206235013,-0.14148681055155876
4.251141999999999,7.616306954436451,1.630695443645084,-0.42685851318944845
4.256146999999999,7.5155875299760195,1.65947242206235,-0.45323741007194246
4.261151999999999,7.460431654676259,1.6115107913669064,-0.2709832134292566
4.266156999999999,7.510791366906475,1.4508393285371703,0.03836930455635491
4.271161999999999,7.6450839328537175,1.2158273381294964,0.37410071942446044
4.276166999999999,7.808153477218226,1.052757793764988,0.6642685851318945
4.281171999999999,7.925659472422062,0.9016786570743405,0.9688249400479616
4.286176999999999,8.16546762589928,0.7338129496402878,1.1486810551558753
4.291181999999999,8.462829736211031,0.7338129496402878,1.20863309352518
4.296186999999999,8.81294964028777,0.6666666666666666,1.2062350119904077
4.301191999999999,9.179856115107913,0.5299760191846523,1.1654676258992807
4.306196999999999,9.577937649880097,0.3764988009592326,1.0623501199040768
4.311201999999999,10.16546762589928,0.15827338129496402,0.9088729016786571
4.316206999999999,10.717026378896882,0.06235011990407674,0.7985611510791367
4.321211999999999,11.093525179856115,-0.0671462829736211,0.7026378896882494
4.326216999999999,11.46043165467626,-0.17026378896882494,0.6019184652278178
4.331221999999999,11.805755395683454,-0.2565947242206235,0.37410071942446044
4.336226999999999,12.05515587529976,-0.5035971223021583,0.17985611510791366
4.341231999999999,12.074340527577938,-0.7937649880095923,0.06474820143884892
4.346236999999999,11.992805755395683,-0.9040767386091128,-0.11990407673860912
4.351241999999999,11.824940047961631,-0.8585131894484412,-0.2949640287769784
4.356246999999999,11.510791366906474,-0.8345323741007195,-0.47961630695443647
4.361251999999999,11.141486810551559,-0.8273381294964028,-0.5683453237410072
4.366256999999999,10.954436450839328,-0.8177458033573142,-0.6354916067146283
4.371261999999999,10.863309352517986,-0.9088729016786571,-0.7338129496402878
4.376266999999999,10.875299760191847,-1.160671462829736,-0.762589928057554
4.381271999999999,10.940047961630695,-1.3669064748201438,-0.6330935251798561
4.386276999999999,10.995203836930456,-1.4028776978417266,-0.5875299760191847
4.391281999999999,10.88968824940048,-1.2805755395683454,-0.8441247002398081
4.396286999999999,10.630695443645084,-0.947242206235012,-1.2062350119904077
4.401291999999999,10.270983213429256,-0.4988009592326139,-1.6258992805755397
4.406296999999999,9.93525179856115,-0.17266187050359713,-2.1103117505995206
4.411301999999999,9.676258992805755,-0.016786570743405275,-2.5419664268585134
4.416306999999999,9.549160671462829,-0.016786570743405275,-2.853717026378897
4.421311999999999,9.458033573141487,-0.07913669064748201,-3.0743405275779376
4.426316999999999,9.410071942446043,-0.14148681055155876,-3.175059952038369
4.431321999999999,9.345323741007194,-0.23261390887290168,-3.2494004796163067
4.436326999999999,9.30695443645084,-0.35731414868105515,-3.2038369304556356
4.441331999999999,9.448441247002398,-0.5491606714628298,-3.0695443645083933
4.446336999999999,9.678657074340528,-0.8369304556354916,-2.79136690647482
4.451341999999999,9.884892086330936,-1.0359712230215827,-2.3597122302158273
4.456346999999999,9.949640287769784,-1.0623501199040768,-1.7721822541966428
4.461351999999999,9.995203836930456,-0.9328537170263789,-1.2398081534772183
4.466356999999999,10.191846522781775,-0.6690647482014388,-0.8321342925659473
4.471361999999999,10.582733812949641,-0.38848920863309355,-0.4940047961630695
4.476366999999999,11.100719424460431,-0.31414868105515587,-0.20623501199040767
4.481371999999999,11.683453237410072,-0.4172661870503597,0.014388489208633094
4.486376999999999,12.213429256594724,-0.4988009592326139,0.26139088729016785
4.491381999999999,12.553956834532373,-0.43884892086330934,0.4724220623501199
4.496386999999999,12.760191846522781,-0.31894484412470026,0.6810551558752997
4.501391999999999,12.738609112709833,-0.2685851318944844,0.8992805755395683
4.506396999999999,12.582733812949641,-0.27577937649880097,1.0815347721822541
4.511401999999999,12.39568345323741,-0.23980815347721823,1.2374100719424461
4.516406999999999,12.141486810551559,-0.14628297362110312,1.3788968824940049
4.521411999999999,11.762589928057555,-0.02877697841726619,1.5371702637889688
4.526416999999999,11.211031175059953,0.1486810551558753,1.7002398081534773
4.531421999999999,10.649880095923262,0.33093525179856115,1.839328537170264
4.536426999999999,9.961630695443645,0.7314148681055156,1.8776978417266188
4.541431999999999,9.311750599520384,1.0359712230215827,1.9904076738609113
4.546436999999999,8.776978417266188,1.3045563549160673,2.196642685851319
4.551441999999999,8.347721822541967,1.709832134292566,2.290167865707434
4.556446999999999,8.112709832134293,2.014388489208633,2.3477218225419665
4.561451999999999,7.930455635491607,2.1918465227817747,2.4292565947242206
4.566456999999999,7.83453237410072,2.316546762589928,2.484412470023981
4.571461999999999,7.954436450839329,2.3501199040767387,2.565947242206235
4.576466999999999,8.143884892086332,2.2158273381294964,2.553956834532374
4.581471999999999,8.381294964028777,2.0071942446043165,2.5203836930455634
4.586476999999999,8.6378896882494,1.7937649880095923,2.513189448441247
4.591481999999999,8.750599520383693,1.6882494004796162,2.446043165467626
4.596486999999999,8.764988009592326,1.724220623501199,2.3117505995203835
4.601491999999999,8.709832134292565,1.7841726618705036,2.1654676258992804
4.606496999999999,8.609112709832134,1.8249400479616307,1.9904076738609113
4.611501999999999,8.585131894484412,1.8273381294964028,1.8225419664268585
4.616506999999999,8.60431654676259,1.788968824940048,1.7218225419664268
4.621511999999999,8.563549160671462,1.7338129496402879,1.671462829736211
4.626516999999999,8.553956834532373,1.7050359712230216,1.7266187050359711
4.631521999999999,8.501199040767386,1.7218225419664268,1.7529976019184652
4.636526999999999,8.546762589928058,1.539568345323741,1.7841726618705036
4.641531999999999,8.714628297362111,1.3741007194244603,1.6546762589928057
4.646536999999999,8.79136690647482,1.369304556354916,1.460431654676259
4.651541999999999,8.97841726618705,1.158273381294964,1.3333333333333333
4.656546999999999,9.244604316546763,0.920863309352518,1.0575539568345325
4.661551999999999,9.388489208633093,0.8465227817745803,0.8345323741007195
4.666556999999999,9.568345323741006,0.6906474820143885,0.7050359712230215
4.671561999999999,9.786570743405276,0.48201438848920863,0.5971223021582733
4.676566999999999,9.93525179856115,0.3237410071942446,0.5083932853717026
4.681571999999999,10.189448441247002,0.09592326139088729,0.460431654676259
4.686576999999999,10.378896882494004,-0.0815347721822542,0.3597122302158273
4.691581999999999,10.405275779376499,-0.21103117505995203,0.35731414868105515
4.696586999999999,10.465227817745804,-0.354916067146283,0.407673860911271
4.701591999999999,10.47242206235012,-0.44364508393285373,0.48201438848920863
4.706596999999999,10.422062350119903,-0.48201438848920863,0.6618705035971223
4.711601999999999,10.405275779376499,-0.5251798561151079,0.8633093525179856
4.716606999999999,10.40767386091127,-0.5683453237410072,0.9976019184652278
4.721611999999999,10.393285371702637,-0.5491606714628298,1.1031175059952039
4.726616999999999,10.326139088729017,-0.42206235011990406,1.2014388489208634
4.731621999999999,10.237410071942445,-0.23741007194244604,1.2062350119904077
4.736626999999999,10.220623501199041,-0.1342925659472422,1.1558752997601918
4.741631999999999,10.213429256594724,-0.09352517985611511,1.1342925659472423
4.746636999999999,10.258992805755396,-0.11031175059952038,1.1127098321342925
4.751641999999999,10.326139088729017,-0.08393285371702638,1.1031175059952039
4.756646999999999,10.326139088729017,-0.09352517985611511,1.1390887290167866
4.761651999999999,10.266187050359711,-0.12709832134292565,1.1270983213429258
4.766656999999999,10.18705035971223,-0.1366906474820144,1.0359712230215827
4.771661999999999,10.107913669064748,-0.1510791366906475,0.841726618705036
4.776666999999999,9.997601918465227,-0.1079136690647482,0.580335731414868
4.781671999999999,9.877697841726619,-0.016786570743405275,0.3117505995203837
4.786676999999999,9.762589928057555,0.08872901678657075,0.03597122302158273
4.791681999999999,9.700239808153476,0.16546762589928057,-0.15587529976019185
4.796686999999999,9.685851318944843,0.20863309352517986,-0.3117505995203837
4.801691999999999,9.733812949640289,0.20623501199040767,-0.46522781774580335
4.806696999999999,9.748201438848922,0.1606714628297362,-0.5731414868105515
4.811701999999999,9.7242206235012,0.03597122302158273,-0.645083932853717
4.816706999999999,9.66906474820144,-0.10551558752997602,-0.6762589928057554
4.821711999999999,9.585131894484412,-0.2182254196642686,-0.7242206235011991
4.826716999999999,9.470023980815348,-0.2565947242206235,-0.815347721822542
4.831721999999999,9.345323741007194,-0.24700239808153476,-0.8872901678657075
4.836726999999999,9.172661870503598,-0.24940047961630696,-0.9520383693045563
4.841731999999999,8.990407673860911,-0.13189448441247004,-0.9904076738609112
4.846736999999998,8.788968824940047,0.05275779376498801,-1.026378896882494
4.851741999999999,8.621103117505996,0.29256594724220625,-1.0551558752997603
4.856746999999999,8.551558752997602,0.4940047961630695,-0.935251798561151
4.861751999999999,8.630695443645084,0.6139088729016786,-0.7985611510791367
4.866756999999999,8.688249400479616,0.9256594724220624,-0.6690647482014388
4.871761999999999,8.690647482014388,1.1151079136690647,-0.513189448441247
4.876766999999998,8.899280575539569,0.9688249400479616,-0.34772182254196643
4.881771999999999,9.285371702637889,0.7673860911270983,-0.3117505995203837
4.886776999999999,9.714628297362111,0.6282973621103117,-0.2685851318944844
4.891781999999999,10.16546762589928,0.4940047961630695,-0.26139088729016785
4.896786999999999,10.529976019184652,0.26139088729016785,-0.354916067146283
4.901791999999999,10.84652278177458,0.16546762589928057,-0.5179856115107914
4.906796999999998,11.201438848920864,0.11270983213429256,-0.7386091127098321
4.911801999999999,11.482014388489208,0.06954436450839328,-0.9688249400479616
4.916806999999999,11.726618705035971,-0.09112709832134293,-1.0479616306954436
4.921811999999999,11.954436450839328,-0.2805755395683453,-1.0119904076738608
4.926816999999999,12.038369304556355,-0.37170263788968827,-0.9328537170263789
4.931821999999999,11.988009592326138,-0.4292565947242206,-0.8321342925659473
4.936826999999998,11.961630695443645,-0.592326139088729,-0.7362110311750599
4.941831999999999,11.877697841726619,-0.8009592326139089,-0.6618705035971223
4.946836999999999,11.673860911270983,-0.8393285371702638,-0.7050359712230215
4.951841999999999,11.417266187050359,-0.7290167865707434,-0.7673860911270983
4.956846999999999,11.103117505995204,-0.4628297362110312,-0.7889688249400479
4.961851999999999,10.697841726618705,-0.1630695443645084,-0.6762589928057554
4.966856999999998,10.299760191846524,0.20623501199040767,-0.43884892086330934
4.971861999999999,9.947242206235012,0.5875299760191847,-0.1630695443645084
4.976866999999999,9.623501199040767,0.8776978417266187,0.19424460431654678
4.981871999999998,9.383693045563549,1.0959232613908874,0.7362110311750599
4.986876999999999,9.194244604316546,1.1774580335731415,1.3021582733812949
4.991881999999999,8.908872901678658,1.474820143884892,1.724220623501199
4.996886999999998,8.628297362110311,1.8177458033573142,2.067146282973621
5.001891999999999,8.465227817745804,1.973621103117506,2.393285371702638
5.006896999999999,8.167865707434053,2.035971223021583,2.661870503597122
5.011901999999998,7.920863309352518,2.035971223021583,2.904076738609113
5.016906999999999,7.884892086330935,1.9568345323741008,3.095923261390887
5.021911999999999,7.860911270983213,1.8129496402877698,3.287769784172662
5.026916999999998,7.848920863309353,1.6882494004796162,3.3980815347721824
5.031921999999999,7.916067146282973,1.580335731414868,3.5851318944844124
5.036926999999999,8.134292565947241,1.4460431654676258,3.6882494004796165
5.041931999999998,8.491606714628297,1.249400479616307,3.633093525179856
5.046936999999999,8.877697841726619,1.0839328537170263,3.419664268585132
5.051941999999999,9.26378896882494,0.9640287769784173,3.1223021582733814
5.056946999999998,9.546762589928058,0.8465227817745803,2.817745803357314
5.061951999999999,9.7242206235012,0.8273381294964028,2.4532374100719423
5.066956999999999,9.781774580335732,0.8633093525179856,2.160671462829736
5.071961999999998,9.887290167865707,0.6067146282973621,1.9232613908872902
5.076966999999999,10.002398081534773,0.30455635491606714,1.7194244604316546
5.081971999999999,10.079136690647482,0.07434052757793765,1.5611510791366907
5.086976999999998,10.223021582733812,-0.24700239808153476,1.486810551558753
5.091981999999999,10.388489208633093,-0.6282973621103117,1.4004796163069544
5.096986999999999,10.405275779376499,-0.882494004796163,1.3117505995203838
5.101991999999998,10.369304556354916,-1.158273381294964,1.2374100719424461
5.106996999999999,10.364508393285371,-1.354916067146283,1.091127098321343
5.112001999999999,10.345323741007194,-1.4412470023980815,0.8657074340527577
5.117006999999998,10.326139088729017,-1.4172661870503598,0.5947242206235012
5.122011999999999,10.333333333333334,-1.3045563549160673,0.3261390887290168
5.127016999999999,10.251798561151078,-1.0815347721822541,0.06235011990407674
5.132021999999998,10.172661870503598,-0.8249400479616307,-0.17026378896882494
5.137026999999999,10.235011990407674,-0.7649880095923262,-0.23501199040767387
5.142031999999999,10.402877697841726,-0.8513189448441247,-0.18705035971223022
5.147036999999998,10.611510791366907,-0.9568345323741008,-0.24940047961630696
5.152041999999999,10.832134292565947,-0.9568345323741008,-0.44844124700239807
5.157046999999999,10.94484412470024,-0.8776978417266187,-0.7841726618705036
5.162051999999998,11.129496402877697,-0.9040767386091128,-1.064748201438849
5.167056999999999,11.366906474820144,-0.8872901678657075,-1.3908872901678657
5.172061999999999,11.470023980815348,-0.8033573141486811,-1.7314148681055155
5.177066999999998,11.585131894484412,-1.0119904076738608,-1.935251798561151
5.182071999999999,11.856115107913668,-1.275779376498801,-2.067146282973621
5.187076999999999,12.014388489208633,-1.4892086330935252,-2.172661870503597
5.192081999999998,12.191846522781775,-1.7697841726618706,-2.2326139088729016
5.197086999999999,12.191846522781775,-1.9568345323741008,-2.2278177458033572
5.202091999999999,12.059952038369305,-2.13189448441247,-2.1678657074340526
5.207096999999998,11.894484412470025,-2.1031175059952036,-2.1007194244604315
5.212101999999999,11.582733812949641,-1.8105515587529977,-2.1103117505995206
5.217106999999999,11.278177458033573,-1.4772182254196642,-1.9976019184652278
5.222111999999998,11.019184652278177,-1.0599520383693046,-1.79136690647482
5.227116999999999,10.776978417266188,-0.6282973621103117,-1.60431654676259
5.232121999999999,10.597122302158274,-0.2302158273381295,-1.3621103117505995
5.237126999999998,10.517985611510792,0.045563549160671464,-1.0215827338129497
5.242131999999999,10.544364508393285,0.26618705035971224,-0.580335731414868
5.247136999999999,10.69304556354916,0.3381294964028777,-0.15587529976019185
5.252141999999998,11.0,0.4580335731414868,0.10551558752997602
5.257146999999999,11.122302158273381,0.6690647482014388,0.29256594724220625
5.262151999999999,11.175059952038369,0.7386091127098321,0.4412470023980815
5.267156999999998,11.146282973621103,0.7889688249400479,0.5299760191846523
5.272161999999999,10.84652278177458,1.0815347721822541,0.539568345323741
5.277166999999999,10.479616306954437,1.3237410071942446,0.592326139088729
5.282171999999998,10.143884892086332,1.4364508393285371,0.6882494004796164
5.287176999999999,9.764988009592326,1.6474820143884892,0.7242206235011991
5.292181999999999,9.412470023980815,1.8513189448441247,0.7122302158273381
5.297186999999998,9.220623501199041,1.9880095923261392,0.882494004796163
5.302191999999999,9.093525179856115,1.985611510791367,1.129496402877698
5.307196999999999,9.002398081534773,2.0215827338129495,1.3357314148681054
5.312201999999998,9.023980815347722,2.0095923261390887,1.4364508393285371
5.317206999999999,8.856115107913668,1.9424460431654675,1.6378896882494005
5.322211999999999,8.70503597122302,2.0095923261390887,2.1199040767386093
5.327216999999998,8.623501199040767,2.1390887290167866,2.2134292565947242
5.332221999999999,8.661870503597122,2.196642685851319,2.129496402877698
5.337226999999999,8.805755395683454,2.1918465227817747,2.1031175059952036
5.342231999999998,9.002398081534773,2.179856115107914,1.9976019184652278
5.347236999999999,9.32853717026379,2.067146282973621,1.815347721822542
5.352241999999999,9.774580335731414,1.8345323741007193,1.724220623501199
5.357246999999998,10.211031175059953,1.5755395683453237,1.5779376498800959
5.362251999999999,10.486810551558753,1.4292565947242206,1.3213429256594724
5.367256999999999,10.633093525179856,1.474820143884892,0.9712230215827338
5.372261999999998,10.899280575539569,1.369304556354916,0.7913669064748201
5.377266999999999,11.211031175059953,0.9904076738609112,0.6546762589928058
5.382271999999999,11.486810551558753,0.7601918465227818,0.5899280575539568
5.387276999999998,11.642685851318944,0.7194244604316546,0.6498800959232613
5.392281999999999,11.712230215827338,0.5275779376498801,0.841726618705036
5.397286999999999,11.606714628297363,0.4148681055155875,1.0191846522781776
5.402291999999998,11.30695443645084,0.5491606714628298,1.20863309352518
5.407296999999999,10.928057553956835,0.7553956834532374,1.4004796163069544
5.412301999999999,10.534772182254196,0.8561151079136691,1.5755395683453237
5.417306999999998,10.232613908872901,0.8800959232613909,1.6954436450839327
5.422311999999999,10.02158273381295,0.8177458033573142,1.7553956834532374
5.427316999999999,9.853717026378897,0.7314148681055156,1.7314148681055155
5.432321999999998,9.678657074340528,0.6378896882494005,1.580335731414868
5.437326999999999,9.417266187050359,0.5299760191846523,1.3836930455635492
5.442331999999999,9.083932853717027,0.49640287769784175,1.1942446043165467
5.447336999999998,8.796163069544365,0.5467625899280576,1.038369304556355
5.452341999999999,8.59232613908873,0.592326139088729,0.9088729016786571
5.457346999999999,8.42925659472422,0.6306954436450839,0.8729016786570744
5.462351999999999,8.213429256594724,0.6690647482014388,0.7985611510791367
5.467356999999999,8.225419664268586,0.9304556354916067,0.709832134292566
5.472361999999999,8.400479616306955,1.1079136690647482,0.6906474820143885
5.477366999999999,8.553956834532373,1.235011990407674,0.8009592326139089
5.482371999999999,8.729016786570744,1.1654676258992807,1.1390887290167866
5.487376999999999,8.954436450839328,1.1031175059952039,1.4628297362110312
5.492381999999999,9.095923261390887,1.13189448441247,1.7026378896882495
5.497386999999999,9.256594724220623,1.0935251798561152,1.9664268585131894
5.502391999999999,9.46043165467626,0.9424460431654677,2.1534772182254196
5.507396999999999,9.623501199040767,0.6930455635491607,2.117505995203837
5.512401999999999,9.79136690647482,0.37170263788968827,1.8968824940047961
5.517406999999999,10.011990407673862,0.09832134292565947,1.5323741007194245
5.522411999999999,10.175059952038369,-0.11270983213429256,1.1414868105515588
5.527416999999999,10.244604316546763,-0.2182254196642686,0.6618705035971223
5.532421999999999,10.203836930455635,-0.2637889688249401,0.13189448441247004
5.537426999999999,10.15347721822542,-0.2805755395683453,-0.39568345323741005
5.542431999999999,10.155875299760192,-0.34772182254196643,-0.8992805755395683
5.547436999999999,10.112709832134293,-0.3908872901678657,-1.3501199040767387
5.552441999999999,9.949640287769784,-0.539568345323741,-1.5491606714628297
5.557446999999999,9.851318944844124,-0.7434052757793765,-1.6546762589928057
5.562451999999999,9.664268585131895,-0.645083932853717,-1.839328537170264
5.567456999999999,9.400479616306955,-0.486810551558753,-1.880095923261391
5.572461999999999,9.088729016786571,-0.37410071942446044,-1.8441247002398082
5.577466999999999,8.76978417266187,-0.22541966426858512,-1.7577937649880095
5.582471999999999,8.53956834532374,-0.07913669064748201,-1.6019184652278178
5.587476999999999,8.39568345323741,0.09592326139088729,-1.4268585131894485
5.592481999999999,8.239808153477219,0.2446043165467626,-1.2470023980815348
5.597486999999999,8.081534772182254,0.39568345323741005,-1.0479616306954436
5.602491999999999,7.9352517985611515,0.5443645083932853,-0.7242206235011991
5.607496999999999,7.84652278177458,0.6714628297362111,-0.5491606714628298
5.612501999999999,7.808153477218226,0.8920863309352518,-0.5467625899280576
5.617506999999999,7.580335731414868,1.0455635491606714,-0.43884892086330934
5.622511999999999,7.546762589928058,1.4028776978417266,-0.2589928057553957
5.627516999999999,7.618705035971223,1.683453237410072,-0.17026378896882494
5.632521999999999,7.894484412470024,1.774580335731415,-0.05995203836930456
5.637526999999999,8.338129496402878,1.592326139088729,0.19424460431654678
5.642531999999999,8.832134292565947,1.314148681055156,0.5083932853717026
5.647536999999999,9.239808153477219,1.0455635491606714,0.7865707434052758
5.652541999999999,9.50599520383693,0.8968824940047961,0.9448441247002398
5.657546999999999,9.745803357314148,0.7721822541966427,0.9976019184652278
5.662551999999999,10.009592326139089,0.6330935251798561,0.8729016786570744
5.667556999999999,10.270983213429256,0.4196642685851319,0.6019184652278178
5.672561999999999,10.575539568345324,0.18705035971223022,0.3669064748201439
5.677566999999999,10.916067146282973,0.0,0.09112709832134293
5.682571999999999,11.112709832134293,-0.20863309352517986,-0.19184652278177458
5.687576999999999,11.218225419664268,-0.2949640287769784,-0.4628297362110312
5.692581999999999,11.347721822541967,-0.5059952038369304,-0.5995203836930456
5.697586999999999,11.39568345323741,-0.697841726618705,-0.7817745803357314
5.702591999999999,11.376498800959233,-0.8033573141486811,-0.9520383693045563
5.707596999999999,11.278177458033573,-0.7553956834532374,-1.0215827338129497
5.712601999999999,11.117505995203837,-0.7410071942446043,-1.0359712230215827
5.717606999999999,10.904076738609113,-0.6762589928057554,-1.0599520383693046
5.722611999999999,10.549160671462829,-0.4196642685851319,-1.0359712230215827
5.727616999999999,10.225419664268586,-0.14388489208633093,-0.9448441247002398
5.732621999999999,9.884892086330936,0.10071942446043165,-0.750599520383693
5.737626999999999,9.575539568345324,0.3381294964028777,-0.5035971223021583
5.742631999999999,9.304556354916068,0.6211031175059952,-0.19664268585131894
5.747636999999999,9.179856115107913,0.7002398081534772,0.10311750599520383
5.752641999999999,9.07673860911271,0.8705035971223022,0.302158273381295
5.757646999999999,8.880095923261392,1.0959232613908874,0.5491606714628298
5.762651999999999,8.788968824940047,1.184652278177458,0.7697841726618705
5.767656999999999,8.717026378896882,1.2781774580335732,0.920863309352518
5.772661999999999,8.65947242206235,1.4028776978417266,0.9376498800959233
5.777666999999999,8.630695443645084,1.4820143884892085,0.9712230215827338
5.782671999999999,8.664268585131895,1.4724220623501199,0.9544364508393285
5.787676999999999,8.721822541966427,1.4556354916067147,0.8633093525179856
5.792681999999999,8.892086330935252,1.3860911270983214,0.7314148681055156
5.797686999999999,9.172661870503598,1.2685851318944845,0.5443645083932853
5.802691999999999,9.458033573141487,1.1366906474820144,0.302158273381295
5.807696999999999,9.697841726618705,0.9424460431654677,0.15587529976019185
5.812701999999999,9.896882494004796,0.815347721822542,0.047961630695443645
5.817706999999999,10.107913669064748,0.815347721822542,-0.06474820143884892
5.822711999999999,10.354916067146283,0.841726618705036,-0.15827338129496402
5.827716999999999,10.733812949640289,0.7817745803357314,-0.17985611510791366
5.832721999999999,11.23021582733813,0.5443645083932853,-0.15827338129496402
5.837726999999999,11.721822541966427,0.23980815347721823,-0.07673860911270983
5.842731999999999,12.028776978417266,0.11510791366906475,0.06474820143884892
5.847736999999999,12.266187050359711,-0.10311750599520383,0.1342925659472422
5.852741999999999,12.434052757793765,-0.290167865707434,-0.014388489208633094
5.857746999999999,12.443645083932854,-0.44844124700239807,-0.31894484412470026
5.862751999999999,12.335731414868105,-0.7170263788968825,-0.6187050359712231
5.867756999999999,12.146282973621103,-0.8896882494004796,-0.9304556354916067
5.872761999999999,11.971223021582734,-0.9568345323741008,-1.1247002398081534
5.877766999999999,11.79136690647482,-0.9448441247002398,-1.1918465227817745
5.882771999999999,11.628297362110311,-0.7913669064748201,-1.1414868105515588
5.887776999999999,11.3621103117506,-0.47721822541966424,-1.064748201438849
5.892781999999999,11.100719424460431,-0.2038369304556355,-1.0119904076738608
5.897786999999999,10.899280575539569,-0.004796163069544364,-0.8920863309352518
5.902791999999999,10.781774580335732,0.19184652278177458,-0.815347721822542
5.907796999999999,10.717026378896882,0.39568345323741005,-0.750599520383693
5.912801999999999,10.697841726618705,0.565947242206235,-0.7458033573141487
5.917806999999999,10.594724220623501,0.6522781774580336,-0.8249400479616307
5.922811999999999,10.412470023980815,0.750599520383693,-0.8033573141486811
5.927816999999999,10.225419664268586,0.894484412470024,-0.7290167865707434
5.932821999999999,10.035971223021583,0.9064748201438849,-0.5971223021582733
5.937826999999999,9.779376498800959,0.8752997601918465,-0.47002398081534774
5.942831999999999,9.462829736211031,0.9784172661870504,-0.4148681055155875
5.947836999999999,9.170263788968825,1.1247002398081534,-0.4172661870503597
5.952841999999999,8.976019184652278,1.34052757793765,-0.3597122302158273
5.957846999999999,8.50599520383693,1.498800959232614,-0.0407673860911271
5.962851999999999,8.258992805755396,1.7410071942446044,0.16546762589928057
5.967856999999999,8.160671462829736,2.0071942446043165,0.18465227817745802
5.972861999999999,8.239808153477219,2.1342925659472423,0.2541966426858513
5.977866999999999,8.585131894484412,2.0551558752997603,0.486810551558753
5.982871999999999,9.143884892086332,1.8129496402877698,0.8729016786570744
5.987876999999999,9.80335731414868,1.4484412470023982,1.2661870503597121
5.992881999999999,10.357314148681056,0.9304556354916067,1.484412470023981
5.997886999999999,10.93285371702638,0.4580335731414868,1.484412470023981
6.002891999999999,11.465227817745804,0.047961630695443645,1.2374100719424461
6.007896999999999,11.93285371702638,-0.24940047961630696,0.8968824940047961
6.012901999999999,12.225419664268586,-0.5059952038369304,0.43884892086330934
6.017906999999999,12.599520383693045,-0.894484412470024,-0.05515587529976019
6.022911999999999,12.829736211031175,-1.354916067146283,-0.5635491606714629
6.027916999999999,12.824940047961631,-1.6978417266187051,-1.023980815347722
6.032921999999999,12.772182254196643,-1.908872901678657,-1.410071942446043
6.037926999999999,12.628297362110311,-1.985611510791367,-1.788968824940048
6.042931999999999,12.434052757793765,-1.9808153477218224,-2.175059952038369
6.047936999999999,12.191846522781775,-1.9496402877697843,-2.529976019184652
6.052941999999999,11.872901678657074,-1.894484412470024,-2.800959232613909
6.057946999999999,11.381294964028777,-1.7002398081534773,-2.9784172661870505
6.062951999999999,10.764988009592326,-1.3525179856115108,-3.1079136690647484
6.067956999999999,10.107913669064748,-0.9688249400479616,-3.1510791366906474
6.072961999999999,9.517985611510792,-0.565947242206235,-2.9952038369304557
6.077966999999999,8.980815347721823,-0.20623501199040767,-2.7961630695443644
6.082971999999999,8.482014388489208,0.1079136690647482,-2.671462829736211
6.087976999999999,8.074340527577938,0.2829736211031175,-2.553956834532374
6.092981999999999,7.649880095923262,0.6762589928057554,-2.5083932853717026
6.097986999999999,7.287769784172662,1.023980815347722,-2.592326139088729
6.102991999999999,7.069544364508393,1.1894484412470023,-2.73621103117506
6.107996999999999,6.940047961630696,1.316546762589928,-2.774580335731415
6.113001999999999,6.894484412470024,1.474820143884892,-2.712230215827338
6.118006999999999,6.86810551558753,1.7266187050359711,-2.7146282973621103
6.123011999999999,6.884892086330935,2.028776978417266,-2.678657074340528
6.128016999999999,7.071942446043166,2.273381294964029,-2.5227817745803356
6.133021999999999,7.376498800959233,2.3597122302158273,-2.2446043165467624
6.138026999999999,7.76978417266187,2.275779376498801,-1.9640287769784173
6.143031999999999,8.282973621103118,2.0575539568345325,-1.6978417266187051
6.148036999999999,8.796163069544365,1.829736211031175,-1.4916067146282974
6.153041999999999,9.119904076738608,1.6666666666666667,-1.3477218225419665
6.158046999999999,9.30695443645084,1.5443645083932853,-1.2062350119904077
6.163051999999999,9.489208633093526,1.4580335731414868,-1.0623501199040768
6.168056999999999,9.580335731414868,1.4268585131894485,-0.8872901678657075
6.173061999999999,9.70503597122302,1.39568345323741,-0.6930455635491607
6.178066999999999,9.930455635491606,1.3429256594724222,-0.5779376498800959
6.183071999999999,10.124700239808153,1.2134292565947242,-0.4556354916067146
6.188076999999999,10.333333333333334,1.119904076738609,-0.24700239808153476
6.193081999999999,10.470023980815348,1.105515587529976,-0.09592326139088729
6.198086999999999,10.513189448441247,1.1103117505995204,-0.009592326139088728
6.203091999999999,10.616306954436451,1.0311750599520384,0.1486810551558753
6.208096999999999,10.805755395683454,0.935251798561151,0.2422062350119904
6.213101999999999,10.96642685851319,0.8585131894484412,0.10071942446043165
6.218106999999999,11.009592326139089,0.7841726618705036,-0.08393285371702638
6.223111999999999,10.920863309352518,0.7074340527577938,-0.08393285371702638
6.228116999999999,10.681055155875299,0.7122302158273381,0.016786570743405275
6.233121999999999,10.366906474820144,0.8177458033573142,0.18465227817745802
6.238126999999999,10.03357314148681,0.9952038369304557,0.4028776978417266
6.243131999999999,9.745803357314148,1.0695443645083933,0.6618705035971223
6.248136999999999,9.513189448441247,1.1175059952038369,0.9976019184652278
6.253141999999999,9.422062350119903,1.1822541966426858,1.4244604316546763
6.258146999999999,9.2757793764988,1.2446043165467626,1.829736211031175
6.263151999999999,9.038369304556355,1.3860911270983214,2.1654676258992804
6.268156999999999,8.738609112709833,1.5347721822541966,2.4748201438848922
6.273161999999999,8.544364508393285,1.5971223021582734,2.6690647482014387
6.278166999999999,8.378896882494004,1.5827338129496402,2.580335731414868
6.283171999999999,8.225419664268586,1.5323741007194245,2.405275779376499
6.288176999999999,8.177458033573142,1.4796163069544364,2.194244604316547
6.293181999999999,8.266187050359711,1.369304556354916,1.841726618705036
6.298186999999999,8.458033573141487,1.105515587529976,1.4412470023980815
6.303191999999999,8.65947242206235,0.7553956834532374,1.0959232613908874
6.308196999999999,8.899280575539569,0.3645083932853717,0.7817745803357314
6.313201999999999,9.139088729016786,0.11750599520383694,0.49640287769784175
6.318206999999999,9.350119904076738,-0.0407673860911271,0.29256594724220625
6.323211999999999,9.441247002398082,-0.14388489208633093,0.23261390887290168
6.328216999999999,9.378896882494004,-0.20863309352517986,0.15347721822541965
6.333221999999999,9.345323741007194,-0.18944844124700239,0.10551558752997602
6.338226999999999,9.350119904076738,-0.18944844124700239,0.1366906474820144
6.343231999999999,9.410071942446043,-0.18944844124700239,0.19184652278177458
6.348236999999998,9.489208633093526,-0.2541966426858513,0.21342925659472423
6.353241999999999,9.647482014388489,-0.4028776978417266,0.27817745803357313
6.358246999999999,9.832134292565947,-0.47721822541966424,0.45323741007194246
6.363251999999998,10.043165467625899,-0.42685851318944845,0.6426858513189448
6.368256999999999,10.179856115107913,-0.37889688249400477,0.86810551558753
6.373261999999999,10.2757793764988,-0.4412470023980815,1.026378896882494
6.378266999999998,10.347721822541967,-0.49160671462829736,1.0839328537170263
6.383271999999999,10.388489208633093,-0.5635491606714629,1.0335731414868106
6.388276999999999,10.402877697841726,-0.580335731414868,0.9424460431654677
6.393281999999998,10.453237410071942,-0.592326139088729,0.9016786570743405
6.398286999999999,10.458033573141487,-0.6618705035971223,0.829736211031175
6.403291999999999,10.431654676258994,-0.6762589928057554,0.7434052757793765
6.408296999999998,10.43884892086331,-0.6858513189448441,0.6426858513189448
6.413301999999999,10.443645083932854,-0.7673860911270983,0.5563549160671463
6.418306999999999,10.529976019184652,-0.7793764988009593,0.5203836930455635
6.423311999999998,10.621103117505996,-0.8009592326139089,0.5011990407673861
6.428316999999999,10.623501199040767,-0.7601918465227818,0.4196642685851319
6.433321999999999,10.726618705035971,-0.5995203836930456,0.22541966426858512
6.438326999999998,10.729016786570744,-0.44364508393285373,0.1223021582733813
6.443331999999999,10.556354916067146,-0.381294964028777,0.12470023980815348
6.448336999999999,10.350119904076738,-0.328537170263789,0.08393285371702638
6.453341999999998,10.158273381294965,-0.22541966426858512,-0.02158273381294964
6.458346999999999,9.93285371702638,-0.1223021582733813,-0.20623501199040767
6.463351999999999,9.633093525179856,-0.023980815347721823,-0.4892086330935252
6.468356999999998,9.323741007194245,0.11031175059952038,-0.7913669064748201
6.473361999999999,9.023980815347722,0.2182254196642686,-1.0599520383693046
6.478366999999999,8.67146282973621,0.40047961630695444,-1.26378896882494
6.483371999999998,8.321342925659472,0.513189448441247,-1.328537170263789
6.488376999999999,7.932853717026379,0.6306954436450839,-1.3908872901678657
6.493381999999999,7.613908872901678,0.7841726618705036,-1.3860911270983214
6.498386999999998,7.398081534772182,0.9400479616306955,-1.2973621103117505
6.503391999999999,7.179856115107913,1.1366906474820144,-1.249400479616307
6.508396999999999,6.851318944844125,1.3932853717026379,-1.2038369304556356
6.513401999999998,6.805755395683454,1.6882494004796162,-1.0935251798561152
6.518406999999999,6.719424460431655,2.1007194244604315,-1.026378896882494
6.523411999999999,6.851318944844125,2.302158273381295,-0.8225419664268585
6.528416999999998,7.215827338129497,2.381294964028777,-0.5227817745803357
6.533421999999999,7.729016786570743,2.306954436450839,-0.06954436450839328
6.538426999999999,8.378896882494004,2.0599520383693046,0.35251798561151076
6.543431999999998,8.968824940047961,1.764988009592326,0.6642685851318945
6.548436999999999,9.46043165467626,1.4028776978417266,0.8729016786570744
6.553441999999999,9.930455635491606,1.0599520383693046,0.9232613908872902
6.558446999999998,10.402877697841726,0.7050359712230215,0.8513189448441247
6.563451999999999,10.93525179856115,0.30935251798561153,0.6810551558752997
6.568456999999999,11.30695443645084,0.014388489208633094,0.47721822541966424
6.573461999999998,11.827338129496402,-0.33573141486810554,0.5011990407673861
6.578466999999999,12.34052757793765,-0.9088729016786571,0.5707434052757794
6.583471999999999,12.618705035971223,-1.4460431654676258,0.6546762589928058
6.588476999999998,13.014388489208633,-1.7386091127098322,0.8105515587529976
6.593481999999999,13.112709832134293,-2.031175059952038,1.052757793764988
6.598486999999999,13.323741007194245,-2.1342925659472423,1.2733812949640289
6.603491999999998,13.410071942446043,-2.179856115107914,1.5059952038369304
6.608496999999999,13.302158273381295,-2.016786570743405,1.774580335731415
6.613501999999999,13.139088729016786,-1.6546762589928057,1.9640287769784173
6.618506999999998,12.858513189448441,-1.3597122302158273,2.0887290167865706
6.623511999999999,12.541966426858513,-1.0695443645083933,2.179856115107914
6.628516999999999,12.16306954436451,-0.7841726618705036,2.199040767386091
6.633521999999998,11.700239808153476,-0.4292565947242206,2.1630695443645083
6.638526999999999,11.237410071942445,-0.13908872901678657,2.2062350119904077
6.643531999999999,10.83693045563549,0.0815347721822542,2.316546762589928
6.648536999999998,10.350119904076738,0.5371702637889688,2.292565947242206
6.653541999999999,9.93285371702638,0.8729016786570744,2.302158273381295
6.658546999999999,9.587529976019185,0.9904076738609112,2.2494004796163067
6.663551999999998,9.117505995203837,1.0503597122302157,2.079136690647482
6.668556999999998,8.798561151079136,1.0983213429256595,1.8609112709832134
6.673561999999999,8.652278177458033,1.2326139088729018,1.6139088729016786
6.678566999999998,8.652278177458033,1.1942446043165467,1.4244604316546763
6.683571999999999,8.712230215827338,0.973621103117506,1.2206235011990407
6.688576999999999,8.817745803357314,0.6642685851318945,0.9544364508393285
6.693581999999998,9.002398081534773,0.38609112709832133,0.5683453237410072
6.698586999999998,9.081534772182254,0.17985611510791366,0.2829736211031175
6.703591999999999,9.016786570743406,0.03836930455635491,0.03357314148681055
6.708596999999998,8.93285371702638,0.06954436450839328,-0.1606714628297362
6.713601999999999,8.752997601918466,0.18705035971223022,-0.33093525179856115
6.718606999999999,8.59232613908873,0.38848920863309355,-0.48201438848920863
6.723611999999998,8.52757793764988,0.7697841726618705,-0.5587529976019184
6.728616999999998,8.57074340527578,1.2781774580335732,-0.697841726618705
6.733621999999999,8.673860911270983,1.630695443645084,-0.6762589928057554
6.738626999999998,8.860911270983214,1.8249400479616307,-0.5995203836930456
6.743631999999998,9.127098321342926,1.839328537170264,-0.4940047961630695
6.748636999999999,9.46043165467626,1.6067146282973621,-0.38369304556354916
6.753641999999998,9.856115107913668,1.3021582733812949,-0.302158273381295
6.758646999999998,10.249400479616307,0.973621103117506,-0.2685851318944844
6.763651999999999,10.633093525179856,0.657074340527578,-0.354916067146283
6.768656999999998,10.983213429256594,0.30935251798561153,-0.42685851318944845
6.773661999999998,11.335731414868105,0.08633093525179857,-0.4412470023980815
6.778666999999999,11.618705035971223,-0.06954436450839328,-0.45083932853717024
6.783671999999998,11.906474820143885,-0.2158273381294964,-0.4460431654676259
6.788676999999998,12.045563549160672,-0.3069544364508393,-0.49160671462829736
6.793681999999999,12.151079136690647,-0.5731414868105515,-0.42685851318944845
6.798686999999998,12.247002398081534,-0.762589928057554,-0.30935251798561153
6.803691999999998,12.16306954436451,-0.7553956834532374,-0.11990407673860912
6.808696999999999,11.995203836930456,-0.6067146282973621,0.18944844124700239
6.813701999999998,11.767386091127099,-0.24940047961630696,0.5347721822541966
6.818706999999998,11.513189448441247,0.13189448441247004,0.8800959232613909
6.823711999999999,11.359712230215827,0.5347721822541966,1.460431654676259
6.828716999999998,11.175059952038369,0.8896882494004796,2.026378896882494
6.833721999999998,10.968824940047961,1.160671462829736,2.5611510791366907
6.838726999999999,10.865707434052759,1.2685851318944845,3.0575539568345325
6.843731999999998,10.67146282973621,1.4820143884892085,3.2829736211031175
6.848736999999998,10.470023980815348,1.515587529976019,3.5203836930455634
6.853741999999999,10.309352517985612,1.4628297362110312,3.683453237410072
6.858746999999998,10.035971223021583,1.3597122302158273,3.738609112709832
6.863751999999998,9.750599520383693,1.225419664268585,3.6546762589928057
6.868756999999999,9.503597122302159,1.143884892086331,3.431654676258993
6.873761999999998,9.261390887290167,1.0023980815347722,3.1918465227817747
6.878766999999998,9.009592326139089,0.8345323741007195,2.8081534772182253
6.883771999999999,8.781774580335732,0.7529976019184652,2.3908872901678655
6.888776999999998,8.6378896882494,0.7122302158273381,2.050359712230216
6.893781999999998,8.508393285371703,0.7889688249400479,1.65947242206235
6.898786999999999,8.311750599520384,0.9280575539568345,1.2877697841726619
6.903791999999998,8.235011990407674,0.920863309352518,1.0671462829736211
6.908796999999998,8.333333333333334,0.829736211031175,1.0
6.913801999999999,8.405275779376499,0.6642685851318945,1.0119904076738608
6.918806999999998,8.426858513189448,0.5083932853717026,0.9544364508393285
6.923811999999998,8.393285371702637,0.37889688249400477,0.8393285371702638
6.928816999999999,8.34052757793765,0.17266187050359713,0.6690647482014388
6.933821999999998,8.285371702637889,0.03357314148681055,0.5035971223021583
6.938826999999998,8.299760191846524,-0.11031175059952038,0.2709832134292566
6.943831999999999,8.417266187050359,-0.22541966426858512,0.0815347721822542
6.948836999999998,8.508393285371703,-0.302158273381295,-0.17266187050359713
6.953841999999998,8.676258992805755,-0.34772182254196643,-0.4148681055155875
6.958846999999999,8.904076738609113,-0.41007194244604317,-0.645083932853717
6.963851999999998,9.179856115107913,-0.5491606714628298,-0.829736211031175
6.968856999999998,9.434052757793765,-0.6738609112709832,-0.8896882494004796
6.973861999999999,9.717026378896882,-0.7937649880095923,-0.9592326139088729
6.978866999999998,9.925659472422062,-0.829736211031175,-1.0863309352517985
6.983871999999998,10.052757793764988,-0.9496402877697842,-1.3357314148681054
6.988876999999999,10.16546762589928,-1.2158273381294964,-1.6546762589928057
6.993881999999998,10.268585131894485,-1.34052757793765,-1.8657074340527577
6.998886999999998,10.311750599520384,-1.3453237410071943,-1.9952038369304557
7.003891999999999,10.29496402877698,-1.3237410071942446,-2.079136690647482
7.008896999999998,10.280575539568344,-1.2709832134292567,-2.2302158273381294
7.013877099502486,10.292565947242206,-1.1414868105515588,-2.3117505995203835
7.018857199004973,10.402877697841726,-0.9592326139088729,-2.3093525179856114
7.023837298507461,10.573141486810552,-0.8201438848920863,-2.239808153477218
7.028817398009949,10.820143884892087,-0.829736211031175,-2.1894484412470026
7.033797497512436,11.014388489208633,-0.8345323741007195,-2.0335731414868103
7.038777597014923,11.124700239808153,-0.8705035971223022,-1.9184652278177459
7.043757696517411,11.251798561151078,-0.9808153477218226,-1.9520383693045564
7.048737796019899,11.287769784172662,-1.0695443645083933,-2.0407673860911273
7.053717895522387,11.268585131894485,-1.2374100719424461,-2.2446043165467624
7.058697995024874,11.134292565947241,-1.3788968824940049,-2.5203836930455634
7.063678094527361,10.899280575539569,-1.4532374100719425,-2.6402877697841727
7.068658194029849,10.59232613908873,-1.4292565947242206,-2.642685851318945
7.073638293532337,10.19904076738609,-1.2422062350119905,-2.6258992805755397
7.078618393034824,9.774580335731414,-0.9112709832134293,-2.5755395683453237
7.083598492537312,9.501199040767386,-0.5347721822541966,-2.3645083932853717
7.0885785920397995,9.376498800959233,-0.21342925659472423,-2.0071942446043165
7.093558691542287,9.302158273381295,0.06235011990407674,-1.4916067146282974
7.098538791044774,9.251798561151078,0.2709832134292566,-0.9040767386091128
7.103518890547262,9.237410071942445,0.41007194244604317,-0.33093525179856115
7.10849899004975,9.347721822541967,0.4292565947242206,0.12709832134292565
7.1134790895522375,9.364508393285371,0.645083932853717,0.4892086330935252
7.118459189054724,9.386091127098322,0.7290167865707434,0.8729016786570744
7.123439288557212,9.541966426858513,0.6858513189448441,1.2446043165467626
7.1284193880597,9.657074340527577,0.7649880095923262,1.4580335731414868
7.133399487562188,9.86810551558753,0.7745803357314148,1.6235011990407673
7.138379587064675,10.088729016786571,0.6786570743405276,1.8513189448441247
7.1433596865671625,10.155875299760192,0.5899280575539568,2.1079136690647484
7.14833978606965,10.004796163069544,0.60431654676259,2.2302158273381294
7.153319885572138,9.856115107913668,0.6139088729016786,2.2014388489208634
7.158299985074625,9.685851318944843,0.5563549160671463,2.1702637889688248
7.163280084577113,9.37410071942446,0.4364508393285372,2.1654676258992804
7.1682601840796005,8.90167865707434,0.3908872901678657,2.225419664268585
7.173240283582088,8.443645083932854,0.5083932853717026,2.237410071942446
7.178220383084575,7.954436450839329,0.6930455635491607,2.338129496402878
7.183200482587063,7.467625899280575,0.7961630695443646,2.4532374100719423
7.188180582089551,7.189448441247002,0.7985611510791367,2.6043165467625897
7.193160681592039,6.930455635491607,0.947242206235012,2.7529976019184654
7.1981407810945255,6.906474820143885,0.9976019184652278,3.011990407673861
7.203120880597013,7.203836930455635,0.9760191846522782,3.223021582733813
7.208100980099501,7.496402877697841,1.0863309352517985,3.26378896882494
7.213081079601989,7.788968824940048,1.170263788968825,3.290167865707434
7.218061179104476,8.139088729016786,1.1486810551558753,3.2470023980815346
7.2230412786069635,8.537170263788969,1.1822541966426858,3.175059952038369
7.228021378109451,8.86810551558753,1.1223021582733812,3.20863309352518
7.233001477611939,9.167865707434053,0.973621103117506,3.2326139088729016
7.237981577114426,9.426858513189448,0.6834532374100719,3.047961630695444
7.242961676616914,9.59232613908873,0.3597122302158273,2.762589928057554
7.247941776119402,9.793764988009592,0.08633093525179857,2.4772182254196644
7.252921875621889,9.937649880095924,-0.15347721822541965,2.0695443645083933
7.257901975124376,9.755395683453237,-0.14148681055155876,1.6786570743405276
7.262882074626864,9.582733812949641,-0.2038369304556355,1.3333333333333333
7.267862174129352,9.383693045563549,-0.21342925659472423,0.9928057553956835
7.27284227363184,9.213429256594724,-0.2422062350119904,0.6594724220623501
7.277822373134327,9.167865707434053,-0.34772182254196643,0.36211031175059955
7.282802472636814,9.225419664268586,-0.4316546762589928,0.03357314148681055
7.287782572139302,9.225419664268586,-0.5035971223021583,-0.2733812949640288
7.292762671641789,9.434052757793765,-0.580335731414868,-0.45083932853717024
7.297742771144277,9.748201438848922,-0.6211031175059952,-0.5971223021582733
7.302722870646765,10.009592326139089,-0.5107913669064749,-0.8057553956834532
7.307702970149252,10.304556354916068,-0.5947242206235012,-0.935251798561151
7.31268306965174,10.611510791366907,-0.697841726618705,-1.0671462829736211
7.317663169154227,10.865707434052759,-0.7194244604316546,-1.1798561151079137
7.322643268656715,10.767386091127099,-0.5035971223021583,-1.2949640287769784
7.327623368159203,10.525179856115107,-0.22302158273381295,-1.2805755395683454
7.3326034676616905,10.345323741007194,-0.03117505995203837,-1.158273381294964
7.337583567164177,10.203836930455635,0.11270983213429256,-0.9592326139088729
7.342563666666665,10.02158273381295,0.17026378896882494,-0.6306954436450839
7.347543766169153,9.755395683453237,0.34772182254196643,-0.2446043165467626
7.35252386567164,9.419664268585132,0.7314148681055156,0.17266187050359713
7.357503965174128,9.146282973621103,1.079136690647482,0.6115107913669064
7.362484064676615,8.870503597122303,1.4412470023980815,1.026378896882494
7.367464164179103,8.647482014388489,1.6978417266187051,1.2973621103117505
7.37244426368159,8.712230215827338,1.6522781774580335,1.4940047961630696
7.377424363184078,8.856115107913668,1.5107913669064748,1.501199040767386
7.382404462686566,9.014388489208633,1.2374100719424461,1.4532374100719425
7.3873845621890535,9.261390887290167,0.9616306954436451,1.369304556354916
7.39236466169154,9.465227817745804,0.6906474820143885,1.2062350119904077
7.397344761194028,9.66906474820144,0.4676258992805755,0.9808153477218226
7.402324860696516,9.980815347721823,0.18465227817745802,0.6690647482014388
7.407304960199004,10.398081534772182,-0.1630695443645084,0.2733812949640288
7.412285059701491,10.76978417266187,-0.460431654676259,-0.09112709832134293
7.417265159203978,10.964028776978417,-0.5707434052757794,-0.4316546762589928
7.422245258706466,11.06474820143885,-0.7146282973621103,-0.7577937649880095
7.427225358208954,11.112709832134293,-0.709832134292566,-1.0719424460431655
7.432205457711441,10.887290167865707,-0.4412470023980815,-1.4484412470023982
7.437185557213929,10.613908872901678,-0.2422062350119904,-1.7026378896882495
7.4421656567164165,10.206235011990408,-0.016786570743405275,-1.870503597122302
7.447145756218904,9.776978417266188,0.1774580335731415,-1.829736211031175
7.452125855721391,9.309352517985612,0.39568345323741005,-1.6978417266187051
7.457105955223879,8.839328537170264,0.5683453237410072,-1.513189448441247
7.462086054726367,8.359712230215827,0.7194244604316546,-1.316546762589928
7.467066154228855,7.952038369304557,0.8537170263788969,-1.2134292565947242
7.4720462537313415,7.633093525179856,0.9112709832134293,-1.038369304556355
7.477026353233829,7.290167865707434,0.8992805755395683,-0.935251798561151
7.482006452736317,6.937649880095924,0.9760191846522782,-0.86810551558753
7.486986552238805,6.693045563549161,0.9592326139088729,-0.5731414868105515
7.491966651741292,6.347721822541966,0.9064748201438849,-0.302158273381295
7.4969467512437795,6.201438848920863,1.1031175059952039,-0.04316546762589928
7.501926850746267,6.294964028776978,1.3932853717026379,0.19424460431654678
7.506906950248755,6.513189448441247,1.5539568345323742,0.4676258992805755
7.511887049751242,6.829736211031175,1.5995203836930456,0.8033573141486811
7.51686714925373,7.206235011990407,1.5275779376498801,1.196642685851319
7.521847248756218,7.621103117505995,1.39568345323741,1.4772182254196642
7.526827348258705,8.038369304556355,1.2805755395683454,1.776978417266187
7.531807447761192,8.393285371702637,1.2374100719424461,2.016786570743405
7.53678754726368,8.83693045563549,1.20863309352518,2.014388489208633
7.541767646766168,9.311750599520384,1.038369304556355,1.776978417266187
7.546747746268656,9.772182254196643,0.8800959232613909,1.3645083932853717
7.5517278457711425,10.155875299760192,0.7434052757793765,0.9256594724220624
7.55670794527363,10.482014388489208,0.6235011990407674,0.5011990407673861
7.561688044776118,10.616306954436451,0.5347721822541966,0.2014388489208633
7.566668144278606,10.549160671462829,0.5059952038369304,0.016786570743405275
7.571648243781093,10.50599520383693,0.3069544364508393,-0.05515587529976019
7.576628343283581,10.371702637889689,0.11510791366906475,-0.0407673860911271
7.581608442786068,10.139088729016786,-0.026378896882494004,-0.009592326139088728
7.586588542288556,9.976019184652278,-0.09832134292565947,0.004796163069544364
7.591568641791043,9.920863309352518,-0.09112709832134293,-0.15347721822541965
7.596548741293531,9.851318944844124,0.023980815347721823,-0.4364508393285372
7.601528840796019,9.817745803357314,0.18225419664268586,-0.750599520383693
7.6065089402985056,9.880095923261392,0.3381294964028777,-1.0983213429256595
7.611489039800993,9.88968824940048,0.41247002398081534,-1.3189448441247003
7.616469139303481,9.793764988009592,0.4940047961630695,-1.4004796163069544
7.621449238805969,9.678657074340528,0.5995203836930456,-1.3429256594724222
7.626429338308457,9.520383693045563,0.762589928057554,-1.2422062350119905
7.631409437810944,9.326139088729017,0.9640287769784173,-1.146282973621103
7.636389537313431,9.15347721822542,1.1750599520383693,-1.0023980815347722
7.641369636815919,8.911270983213429,1.3788968824940049,-0.8441247002398081
7.646349736318406,8.628297362110311,1.5347721822541966,-0.6738609112709832
7.651329835820894,8.381294964028777,1.6954436450839327,-0.4844124700239808
7.656309935323382,8.258992805755396,1.7625899280575539,-0.18944844124700239
7.6612900348258695,8.223021582733812,1.8489208633093526,0.07194244604316546
7.666270134328357,8.285371702637889,1.9232613908872902,0.3597122302158273
7.671250233830844,8.53956834532374,1.9184652278177459,0.6762589928057554
7.676230333333332,8.94484412470024,1.8369304556354915,0.935251798561151
7.68121043283582,9.335731414868105,1.7290167865707433,1.143884892086331
7.686190532338307,9.755395683453237,1.630695443645084,1.2517985611510791
7.691170631840794,10.122302158273381,1.4412470023980815,1.3429256594724222
7.696150731343282,10.458033573141487,1.196642685851319,1.3980815347721822
7.70113083084577,10.750599520383693,1.0071942446043165,1.3669064748201438
7.706110930348258,10.992805755395683,0.8561151079136691,1.2877697841726619
7.711091029850745,11.201438848920864,0.7529976019184652,1.1414868105515588
7.7160711293532325,11.350119904076738,0.6163069544364509,0.9760191846522782
7.72105122885572,11.508393285371703,0.4676258992805755,0.8393285371702638
7.726031328358207,11.573141486810552,0.39568345323741005,0.7673860911270983
7.731011427860695,11.508393285371703,0.3764988009592326,0.7601918465227818
7.735991527363183,11.39568345323741,0.4052757793764988,0.8561151079136691
7.7409716268656705,11.175059952038369,0.44364508393285373,0.9592326139088729
7.745951726368158,10.973621103117505,0.5467625899280576,1.1366906474820144
7.750931825870645,10.815347721822542,0.6211031175059952,1.223021582733813
7.755911925373133,10.685851318944843,0.7338129496402878,1.2829736211031175
7.760892024875621,10.517985611510792,0.988009592326139,1.3860911270983214
7.765872124378108,10.354916067146283,1.2829736211031175,1.5083932853717026
7.7708522238805955,10.119904076738608,1.4436450839328536,1.5827338129496402
7.775832323383083,9.920863309352518,1.5299760191846523,1.6426858513189448
7.780812422885571,9.815347721822542,1.5635491606714629,1.6258992805755397
7.785792522388059,9.86810551558753,1.4820143884892085,1.5755395683453237
7.790772621890546,10.079136690647482,1.2925659472422062,1.4580335731414868
7.7957527213930335,10.235011990407674,1.0671462829736211,1.2613908872901678
7.800732820895521,10.316546762589928,0.947242206235012,1.0215827338129497
7.805712920398008,10.338129496402878,0.7865707434052758,0.7913669064748201
7.810693019900496,10.34052757793765,0.5419664268585132,0.5323741007194245
7.815673119402984,10.338129496402878,0.31894484412470026,0.2565947242206235
7.820653218905472,10.326139088729017,0.1606714628297362,0.009592326139088728
7.8256333184079585,10.309352517985612,0.02877697841726619,-0.1630695443645084
7.830613417910446,10.20863309352518,-0.023980815347721823,-0.18465227817745802
7.835593517412934,10.059952038369305,-0.011990407673860911,-0.1486810551558753
7.840573616915422,9.904076738609113,0.02877697841726619,-0.026378896882494004
7.845553716417909,9.772182254196643,0.06235011990407674,0.22541966426858512
7.850533815920397,9.743405275779377,0.10311750599520383,0.6235011990407674
7.855513915422884,9.79136690647482,0.08393285371702638,1.1486810551558753
7.860494014925372,9.913669064748202,0.11990407673860912,1.6618705035971224
7.865474114427859,10.043165467625899,0.15827338129496402,2.143884892086331
7.870454213930347,10.179856115107913,0.1606714628297362,2.4748201438848922
7.875434313432835,10.402877697841726,0.15827338129496402,2.58273381294964
7.880414412935322,10.654676258992806,0.09832134292565947,2.551558752997602
7.885394512437809,10.84652278177458,0.011990407673860911,2.434052757793765
7.890374611940297,11.071942446043165,-0.14148681055155876,2.278177458033573
7.895354711442785,11.314148681055157,-0.19424460431654678,2.064748201438849
7.900334810945273,11.50599520383693,-0.14148681055155876,1.8201438848920863
7.90531491044776,11.678657074340528,-0.09832134292565947,1.5347721822541966
7.910295009950247,11.906474820143885,-0.10071942446043165,1.2925659472422062
7.915275109452735,12.062350119904076,-0.1630695443645084,1.0815347721822541
7.920255208955222,12.2757793764988,-0.2278177458033573,0.9424460431654677
7.92523530845771,12.503597122302159,-0.33573141486810554,0.8585131894484412
7.930215407960198,12.434052757793765,-0.3117505995203837,0.7577937649880095
7.935195507462685,12.302158273381295,-0.5299760191846523,0.7865707434052758
7.940175606965173,12.482014388489208,-0.7002398081534772,0.7194244604316546
7.94515570646766,12.793764988009592,-0.5587529976019184,0.16786570743405277
7.950135805970148,12.822541966426858,-0.6522781774580336,-0.13189448441247004
7.955115905472636,12.894484412470025,-0.8177458033573142,-0.37889688249400477
7.960096004975123,12.968824940047961,-0.8800959232613909,-0.7242206235011991
7.96507610447761,13.057553956834532,-0.7194244604316546,-1.1127098321342925
7.970056203980098,13.06714628297362,-0.6378896882494005,-1.3980815347721822
